X-Data [Hz]	Piezo (M - Filtered) [mV]	Phase [Deg]	Piezo (M - Filtered) [mV]	Phase [Deg]	
	002: [07-10-24 10:34]		003: [07-10-24 10:37]	
        41,5	     1074,06	-18,5	     1026,19	-34,6
      41,502	     1053,37	-22,0	     1070,69	-27,8
     41,5039	     1046,51	-14,0	     1086,17	-14,8
     41,5059	      1115,6	-32,2	     1058,96	-19,4
     41,5078	     1082,93	-20,9	     1096,55	-31,5
     41,5098	     1114,71	-31,9	     1069,29	-18,4
     41,5117	     1092,51	-21,7	     1092,47	-28,4
     41,5137	     1123,88	-34,0	     1059,76	-15,3
     41,5156	     1092,12	-29,4	     1072,44	-20,4
     41,5176	     1057,26	-16,7	      1118,8	-24,1
     41,5196	     1118,91	-32,5	     1072,94	-16,8
     41,5215	     1076,27	-21,0	     1136,59	-29,9
     41,5235	     1150,51	-31,0	     1078,03	-18,9
     41,5254	     1120,21	-31,3	     1159,52	-31,4
     41,5274	     1135,71	-28,2	     1091,45	-19,6
     41,5293	     1138,83	-36,1	     1144,08	-32,7
     41,5313	     1090,99	-20,1	     1138,51	-29,5
     41,5332	     1140,55	-29,9	     1086,43	-26,9
     41,5352	     1081,21	-17,6	     1130,85	-31,1
     41,5371	     1110,66	-26,9	     1100,01	-21,1
     41,5391	     1072,34	-18,1	     1108,57	-33,0
     41,5411	     1101,75	-18,0	     1140,81	-31,7
      41,543	     1076,66	-19,3	     1134,54	-29,3
      41,545	     1079,58	-16,1	     1159,53	-32,3
     41,5469	     1149,15	-34,9	     1092,05	-21,5
     41,5489	     1101,31	-23,4	     1150,19	-29,7
     41,5508	     1156,79	-30,4	      1090,7	-18,1
     41,5528	     1115,17	-26,7	     1092,02	-23,0
     41,5547	     1154,88	-27,0	     1098,09	-17,1
     41,5567	     1153,32	-33,4	     1086,03	-15,7
     41,5587	     1133,42	-18,9	     1144,81	-30,7
     41,5606	     1187,31	-30,7	     1111,56	-20,2
     41,5626	     1107,27	-17,3	     1146,04	-33,8
     41,5645	     1148,45	-28,0	     1133,59	-23,4
     41,5665	     1098,48	-18,2	     1164,24	-32,2
     41,5684	      1124,1	-17,7	     1174,51	-30,7
     41,5704	     1136,78	-23,0	     1134,25	-23,5
     41,5723	     1115,13	-16,2	     1168,12	-31,5
     41,5743	      1133,4	-32,9	     1081,32	-17,2
     41,5762	     1093,35	-22,3	     1121,08	-23,8
     41,5782	     1186,64	-31,8	     1145,23	-19,3
     41,5802	     1154,01	-26,4	     1102,22	-14,5
     41,5821	     1130,87	-15,7	     1169,67	-34,0
     41,5841	      1179,8	-33,8	     1148,47	-21,6
      41,586	     1113,02	-22,2	     1184,89	-30,6
      41,588	     1170,35	-32,3	     1190,51	-29,6
     41,5899	     1177,37	-27,3	     1124,27	-23,4
     41,5919	      1159,7	-23,8	     1191,28	-35,5
     41,5938	      1191,5	-32,0	     1157,92	-17,3
     41,5958	     1135,35	-16,3	     1179,62	-30,9
     41,5978	     1169,94	-25,1	     1193,95	-33,7
     41,5997	     1126,13	-20,3	      1136,2	-20,2
     41,6017	      1147,2	-20,2	     1194,51	-29,7
     41,6036	     1161,77	-22,8	     1138,62	-16,3
     41,6056	     1140,81	-15,1	     1161,86	-25,5
     41,6075	     1160,81	-28,5	     1162,06	-17,6
     41,6095	     1134,15	-19,9	     1155,32	-17,2
     41,6114	     1214,92	-30,4	     1178,33	-20,1
     41,6134	     1135,58	-17,8	     1125,35	-15,4
     41,6153	     1148,63	-17,4	     1190,43	-32,8
     41,6173	     1165,18	-25,4	     1173,53	-23,6
     41,6193	     1118,56	-17,7	     1208,99	-29,6
     41,6212	     1204,29	-31,0	     1242,99	-28,8
     41,6232	     1166,02	-22,9	     1133,42	-18,4
     41,6251	     1202,64	-29,0	     1174,06	-31,5
     41,6271	     1212,87	-31,5	     1149,06	-18,6
      41,629	     1196,58	-22,4	     1168,85	-22,8
      41,631	     1212,34	-30,9	     1180,27	-22,0
     41,6329	     1138,09	-17,9	     1177,13	-16,7
     41,6349	     1171,84	-20,3	      1228,7	-26,5
     41,6369	     1188,55	-17,3	     1169,39	-15,2
     41,6388	     1165,54	-15,5	     1241,97	-33,9
     41,6408	      1192,9	-25,3	        1228	-26,6
     41,6427	     1156,82	-18,1	      1173,3	-22,6
     41,6447	     1187,59	-18,6	     1218,91	-33,2
     41,6466	     1196,85	-23,5	     1172,72	-15,6
     41,6486	     1182,67	-18,9	     1196,65	-23,2
     41,6505	     1219,69	-29,0	     1229,77	-20,5
     41,6525	     1181,15	-22,4	     1204,07	-16,6
     41,6544	     1246,01	-30,9	     1216,78	-28,0
     41,6564	     1204,31	-27,9	     1189,65	-17,8
     41,6584	        1244	-24,7	     1187,06	-19,4
     41,6603	     1273,25	-28,3	     1223,37	-18,9
     41,6623	     1185,73	-19,4	     1195,24	-17,4
     41,6642	     1232,15	-25,8	     1277,88	-30,1
     41,6662	     1181,45	-17,6	     1237,44	-20,9
     41,6681	     1222,09	-21,7	     1224,19	-28,6
     41,6701	     1192,43	-21,4	     1239,05	-26,5
      41,672	     1189,46	-14,0	     1211,23	-24,0
      41,674	     1243,13	-29,4	     1274,39	-32,9
      41,676	     1195,23	-18,4	     1178,25	-17,2
     41,6779	     1199,29	-14,7	     1213,84	-29,0
     41,6799	     1254,39	-24,8	     1209,16	-17,2
     41,6818	     1211,99	-17,9	     1225,45	-16,7
     41,6838	     1281,94	-32,2	     1294,63	-25,1
     41,6857	     1261,24	-24,3	     1227,88	-18,2
     41,6877	     1258,75	-21,3	     1276,92	-32,2
     41,6896	     1270,83	-30,0	     1298,01	-29,2
     41,6916	     1227,99	-16,2	     1250,49	-18,5
     41,6936	     1254,95	-23,0	     1275,09	-25,9
     41,6955	     1224,32	-15,6	     1262,21	-23,6
     41,6975	     1227,42	-14,4	     1266,57	-27,1
     41,6994	      1247,9	-25,7	     1300,31	-30,5
     41,7014	     1216,88	-17,9	     1225,05	-16,7
     41,7033	     1295,19	-28,0	     1229,88	-26,0
     41,7053	      1264,7	-23,6	      1200,5	-16,0
     41,7072	     1284,85	-25,9	     1210,16	-16,3
     41,7092	     1259,59	-27,1	     1299,64	-25,0
     41,7111	     1263,13	-18,6	     1239,91	-16,9
     41,7131	      1314,8	-31,3	     1306,67	-30,5
     41,7151	     1240,07	-15,2	     1300,68	-25,4
      41,717	     1261,77	-22,4	     1244,22	-25,2
      41,719	     1305,38	-27,3	     1313,18	-30,0
     41,7209	     1254,24	-15,0	     1262,44	-15,3
     41,7229	     1248,56	-18,7	     1277,48	-24,1
     41,7248	     1252,54	-21,1	      1249,8	-14,5
     41,7268	     1251,21	-15,7	        1212	-15,4
     41,7287	     1334,39	-30,9	     1286,58	-25,0
     41,7307	     1273,06	-16,6	     1258,58	-18,0
     41,7327	     1303,27	-26,8	     1323,75	-29,5
     41,7346	     1250,63	-15,0	     1322,48	-25,2
     41,7366	     1279,87	-19,2	     1258,99	-15,1
     41,7385	     1318,08	-28,9	     1333,44	-28,5
     41,7405	      1258,3	-15,7	     1330,71	-26,6
     41,7424	     1291,91	-18,8	     1284,06	-22,3
     41,7444	     1254,98	-17,7	     1323,86	-30,6
     41,7463	     1253,36	-12,4	     1255,09	-15,9
     41,7483	     1310,49	-29,9	     1294,47	-19,5
     41,7502	     1267,18	-24,2	     1320,56	-20,6
     41,7522	     1329,42	-23,4	     1258,19	-14,3
     41,7542	     1346,77	-30,4	     1339,97	-29,8
     41,7561	     1278,97	-17,4	     1314,61	-24,0
     41,7581	     1315,08	-25,5	     1310,34	-23,0
       41,76	        1294	-15,8	     1342,99	-28,8
      41,762	     1313,24	-19,4	     1301,42	-17,8
     41,7639	     1289,77	-20,0	     1344,93	-27,5
     41,7659	      1261,7	-14,3	     1288,78	-15,1
     41,7678	        1334	-28,9	      1279,8	-15,7
     41,7698	     1284,31	-22,4	     1331,47	-19,8
     41,7718	     1339,85	-23,3	     1296,08	-14,8
     41,7737	     1375,04	-28,8	     1383,92	-30,3
     41,7757	     1326,28	-19,0	     1363,78	-24,5
     41,7776	     1361,43	-24,0	     1319,13	-23,0
     41,7796	     1294,36	-16,3	     1354,87	-30,1
     41,7815	     1311,93	-15,4	     1340,28	-23,8
     41,7835	     1360,13	-20,2	     1355,46	-26,3
     41,7854	     1315,24	-17,2	     1394,75	-26,4
     41,7874	      1313,4	-14,4	     1327,79	-14,3
     41,7893	     1348,97	-26,6	     1343,72	-19,1
     41,7913	     1313,66	-18,3	     1327,12	-18,3
     41,7933	     1370,77	-29,7	     1309,74	-15,4
     41,7952	     1333,81	-26,3	     1381,86	-25,2
     41,7972	     1376,71	-24,3	     1340,34	-18,8
     41,7991	     1385,83	-27,4	     1394,05	-28,7
     41,8011	        1341	-16,9	     1395,09	-27,4
      41,803	      1372,3	-26,7	     1342,78	-21,8
      41,805	     1331,16	-16,5	     1392,53	-28,5
     41,8069	      1347,3	-13,0	     1343,28	-13,7
     41,8089	     1373,96	-23,9	     1332,73	-15,1
     41,8109	     1332,75	-19,5	     1392,47	-25,2
     41,8128	     1389,24	-29,0	     1363,88	-11,9
     41,8148	     1397,72	-30,3	     1420,82	-30,6
     41,8167	     1361,35	-17,0	     1423,45	-26,0
     41,8187	     1420,97	-22,5	     1370,36	-23,1
     41,8206	     1339,98	-16,0	      1441,3	-30,0
     41,8226	     1368,94	-14,3	     1436,53	-25,5
     41,8245	     1400,86	-21,3	      1383,2	-22,7
     41,8265	      1349,9	-16,8	     1418,99	-25,3
     41,8284	     1348,98	-12,0	     1339,47	-10,6
     41,8304	     1431,33	-27,4	      1361,8	-20,7
     41,8324	     1387,02	-17,9	     1409,03	-23,3
     41,8343	     1419,32	-24,6	     1357,42	-12,0
     41,8363	     1360,11	-13,4	     1435,22	-27,8
     41,8382	     1374,42	-14,8	      1419,5	-19,7
     41,8402	     1413,11	-27,0	     1394,45	-22,3
     41,8421	     1371,79	-20,3	     1435,94	-27,4
     41,8441	     1431,04	-28,0	     1399,84	-16,7
      41,846	     1410,99	-19,8	     1434,86	-19,1
      41,848	      1379,7	-16,8	      1455,6	-23,7
       41,85	     1448,71	-27,6	     1395,78	-16,0
     41,8519	     1403,09	-22,0	      1448,3	-28,9
     41,8539	     1419,25	-19,1	     1453,41	-25,5
     41,8558	     1456,53	-26,6	     1415,91	-19,3
     41,8578	     1399,31	-12,8	     1448,24	-26,2
     41,8597	     1439,44	-20,2	     1422,46	-13,2
     41,8617	     1480,88	-26,2	     1433,06	-18,4
     41,8636	     1403,17	-14,7	     1462,99	-28,4
     41,8656	     1440,15	-17,7	     1406,28	-13,3
     41,8675	     1432,46	-19,9	     1489,92	-26,2
     41,8695	     1391,18	-14,7	      1487,8	-22,0
     41,8715	     1484,82	-29,0	     1412,22	-19,4
     41,8734	     1405,34	-14,7	     1454,93	-27,0
     41,8754	      1443,6	-17,2	     1475,15	-23,6
     41,8773	     1440,73	-20,1	     1437,36	-19,9
     41,8793	     1407,19	-12,3	     1492,13	-28,7
     41,8812	     1485,56	-28,8	      1432,9	-14,4
     41,8832	     1447,74	-25,7	     1457,66	-19,1
     41,8851	     1471,78	-19,9	     1508,87	-20,7
     41,8871	     1503,54	-26,8	     1441,03	-12,4
     41,8891	     1497,65	-25,5	     1502,24	-26,6
      41,891	     1470,11	-16,9	     1553,34	-26,5
      41,893	     1513,48	-24,4	     1462,45	-19,0
     41,8949	     1423,28	-14,7	     1486,49	-24,6
     41,8969	     1453,44	-13,1	     1476,06	-14,7
     41,8988	     1527,89	-24,5	     1445,58	-11,0
     41,9008	     1483,84	-19,9	      1527,4	-22,2
     41,9027	     1499,19	-23,6	     1486,21	-17,3
     41,9047	     1523,65	-27,9	     1544,95	-27,6
     41,9066	     1461,05	-12,3	     1559,22	-23,3
     41,9086	      1539,9	-23,3	     1469,97	-15,1
     41,9106	     1487,99	-17,4	     1503,94	-25,0
     41,9125	     1454,19	-13,2	     1509,16	-13,5
     41,9145	     1492,97	-23,7	     1494,92	-10,2
     41,9164	      1465,1	-19,4	     1570,38	-24,6
     41,9184	     1563,44	-22,5	     1537,18	-18,9
     41,9203	      1576,5	-27,9	     1479,91	-14,7
     41,9223	     1459,66	-12,6	     1563,93	-26,9
     41,9242	      1487,4	-15,8	     1582,57	-23,7
     41,9262	     1513,59	-20,2	     1506,64	-21,4
     41,9282	     1486,59	-11,9	        1557	-26,8
     41,9301	     1564,24	-27,2	     1492,82	-14,7
     41,9321	      1538,4	-26,7	     1487,04	-14,1
      41,934	     1514,57	-17,0	     1605,69	-21,0
      41,936	      1567,5	-24,9	     1555,51	-13,5
     41,9379	     1499,66	-12,3	     1577,12	-23,1
     41,9399	     1528,92	-13,8	     1607,82	-25,9
     41,9418	     1544,14	-22,7	     1514,37	-12,7
     41,9438	     1508,89	-15,8	     1550,99	-25,1
     41,9457	      1591,9	-25,5	     1539,11	-14,0
     41,9477	     1564,65	-25,6	     1522,11	-11,6
     41,9497	     1547,66	-13,9	     1600,14	-23,3
     41,9516	     1578,94	-21,4	     1589,63	-19,1
     41,9536	     1528,69	-15,1	     1558,97	-18,3
     41,9555	     1513,43	-11,7	     1597,54	-26,7
     41,9575	     1572,46	-15,5	     1550,72	-13,5
     41,9594	     1534,15	-16,7	     1570,47	-15,2
     41,9614	     1551,85	-12,5	     1625,16	-23,3
     41,9633	     1631,12	-24,7	     1576,05	-12,2
     41,9653	     1581,17	-22,6	     1527,32	-12,5
     41,9673	     1597,61	-16,7	     1631,47	-21,9
     41,9692	      1618,6	-22,6	     1591,71	-15,4
     41,9712	     1537,75	-7,9	     1585,56	-21,3
     41,9731	     1583,92	-14,8	     1624,64	-24,3
     41,9751	     1585,76	-18,4	      1569,3	-14,3
      41,977	     1535,02	-13,6	     1656,89	-25,2
      41,979	     1554,41	-13,3	     1673,42	-23,2
     41,9809	     1605,99	-21,3	     1592,49	-15,1
     41,9829	     1583,69	-17,1	     1609,74	-18,8
     41,9848	     1668,86	-20,8	     1616,97	-13,2
     41,9868	     1577,12	-13,9	     1588,26	-10,8
     41,9888	     1593,69	-10,2	     1664,12	-24,9
     41,9907	     1615,87	-16,5	     1657,49	-23,2
     41,9927	     1575,95	-16,2	     1625,51	-12,1
     41,9946	     1574,18	-11,1	     1649,34	-21,6
     41,9966	     1670,35	-23,4	     1665,34	-23,6
     41,9985	     1645,88	-19,5	     1570,01	-13,5
     42,0005	     1675,98	-17,8	     1675,81	-24,0
     42,0024	     1698,27	-23,4	     1679,89	-16,6
     42,0044	     1605,19	-10,4	     1641,22	-14,5
     42,0064	     1643,46	-15,4	     1671,48	-18,8
     42,0083	     1688,98	-15,5	     1656,17	-13,7
     42,0103	     1603,86	-12,2	     1619,98	-15,4
     42,0122	     1589,07	-11,0	     1699,19	-24,5
     42,0142	     1694,25	-20,7	     1687,04	-20,3
     42,0161	     1627,86	-22,0	     1658,61	-17,6
     42,0181	     1650,29	-19,6	     1719,16	-23,4
       42,02	     1682,56	-24,3	     1725,87	-19,0
      42,022	     1610,48	-8,5	     1645,26	-15,3
     42,0239	     1670,03	-12,2	      1688,2	-18,0
     42,0259	     1681,15	-21,4	     1659,16	-12,4
     42,0279	     1631,25	-14,0	      1667,7	-12,1
     42,0298	     1712,97	-24,1	      1748,3	-21,5
     42,0318	     1695,24	-19,5	     1726,56	-20,6
     42,0337	     1646,93	-13,9	     1681,89	-18,6
     42,0357	     1722,99	-20,0	     1741,93	-22,0
     42,0376	      1731,5	-23,0	     1673,84	-8,5
     42,0396	     1663,18	-9,7	     1662,47	-12,2
     42,0415	     1722,82	-15,2	      1752,2	-20,7
     42,0435	     1710,48	-16,0	     1723,15	-14,0
     42,0455	     1688,65	-12,7	      1714,9	-18,2
     42,0474	     1775,76	-22,1	     1739,62	-23,7
     42,0494	     1750,03	-18,2	     1761,79	-22,2
     42,0513	     1745,27	-16,3	     1708,36	-12,8
     42,0533	     1778,96	-15,0	     1760,75	-22,7
     42,0552	     1709,46	-12,8	      1727,6	-14,4
     42,0572	     1711,27	-11,4	     1701,28	-12,7
     42,0591	     1791,57	-21,8	     1830,62	-20,2
     42,0611	      1772,6	-17,5	     1802,22	-17,2
      42,063	     1749,77	-16,4	     1732,93	-14,8
      42,065	     1776,94	-21,7	     1776,13	-19,4
      42,067	     1713,97	-10,6	     1760,06	-10,8
     42,0689	      1743,9	-11,4	     1732,64	-10,4
     42,0709	     1803,58	-17,3	     1815,79	-20,7
     42,0728	      1769,3	-15,5	     1794,18	-20,4
     42,0748	     1757,44	-13,1	     1772,15	-17,8
     42,0767	     1845,54	-21,1	     1821,41	-19,5
     42,0787	      1736,7	-10,8	     1838,21	-23,6
     42,0806	     1763,17	-10,7	      1761,2	-7,5
     42,0826	        1791	-19,5	     1851,19	-17,8
     42,0846	     1765,15	-17,6	     1831,49	-13,8
     42,0865	     1823,83	-18,7	     1776,63	-15,0
     42,0885	     1823,62	-23,5	     1809,64	-19,1
     42,0904	     1805,27	-18,7	     1810,44	-14,4
     42,0924	     1825,79	-13,7	     1772,47	-9,4
     42,0943	     1860,71	-20,8	     1863,06	-23,3
     42,0963	     1758,67	-12,4	      1853,1	-18,4
     42,0982	     1740,03	-9,4	     1797,71	-9,5
     42,1002	     1871,35	-17,9	     1837,04	-19,7
     42,1021	     1866,14	-17,0	     1874,93	-19,7
     42,1041	     1832,51	-10,8	     1803,63	-11,0
     42,1061	     1860,36	-16,1	     1813,33	-10,8
      42,108	     1803,98	-10,0	      1923,1	-10,2
       42,11	     1821,42	-7,3	     1888,28	-12,2
     42,1119	     1900,66	-19,6	      1876,1	-19,5
     42,1139	     1835,77	-16,4	     1907,08	-20,5
     42,1158	     1809,79	-12,8	     1840,16	-5,2
     42,1178	     1912,38	-16,6	     1848,38	-14,6
     42,1197	     1818,45	-11,4	     1911,19	-19,5
     42,1217	     1848,98	-7,6	     1895,65	-12,9
     42,1237	     1886,09	-22,8	     1869,73	-12,4
     42,1256	     1849,39	-15,0	     1907,04	-21,8
     42,1276	     1826,71	-13,3	      1890,2	-11,4
     42,1295	     1919,18	-18,6	     1858,82	-8,4
     42,1315	     1956,94	-22,0	     1981,01	-16,2
     42,1334	     1934,48	-7,5	     1969,79	-14,8
     42,1354	     1990,19	-17,3	     1890,18	-15,5
     42,1373	     1949,81	-11,4	     1939,71	-17,0
     42,1393	     1900,16	-7,5	     1947,28	-11,5
     42,1413	     1988,86	-17,8	     1903,22	-12,5
     42,1432	     1956,98	-17,3	     1961,71	-20,1
     42,1452	     1897,67	-5,3	     1976,17	-16,0
     42,1471	     1950,38	-8,0	     1906,64	-8,1
     42,1491	     1957,16	-14,9	     1931,09	-11,6
      42,151	     1918,16	-11,2	     1970,56	-12,7
      42,153	     1988,15	-18,2	      1930,8	-6,4
     42,1549	      1996,4	-19,4	     1956,45	-18,6
     42,1569	     1921,57	-10,7	     1997,57	-21,8
     42,1588	     1936,49	-8,4	     1915,09	-13,2
     42,1608	     1954,08	-18,2	      1946,9	-9,0
     42,1628	     1882,65	-10,0	     2026,16	-12,6
     42,1647	      1932,7	-13,0	     1977,82	-11,1
     42,1667	     1956,64	-16,2	     1953,36	-6,9
     42,1686	     1925,39	-5,6	     2029,39	-19,9
     42,1706	     1971,48	-4,7	     2041,83	-17,7
     42,1725	     2044,24	-16,0	     1949,27	-8,7
     42,1745	     2010,26	-12,4	     2068,46	-16,6
     42,1764	      1988,1	-5,9	     2047,61	-11,7
     42,1784	     2094,27	-17,1	     2005,45	-12,6
     42,1804	     1994,26	-7,1	     2036,12	-15,4
     42,1823	     1988,81	-7,6	     2085,77	-17,0
     42,1843	     2079,66	-18,1	      2000,2	-3,3
     42,1862	     2084,37	-17,4	     1994,12	-9,9
     42,1882	     2035,05	-4,8	     2051,76	-17,6
     42,1901	     2063,87	-10,4	     2038,12	-9,2
     42,1921	     2044,57	-15,8	     2052,13	-13,9
      42,194	     2037,53	-8,7	     2107,41	-19,9
      42,196	     2128,12	-17,6	     2057,23	-6,7
     42,1979	     2122,35	-17,3	     2022,29	-7,5
     42,1999	     2060,25	-7,7	     2116,85	-18,2
     42,2019	      2107,9	-7,8	     2131,58	-14,4
     42,2038	     2123,17	-14,2	     2062,11	-5,9
     42,2058	     2084,52	-11,7	      2076,4	-10,9
     42,2077	     2143,81	-13,3	     2111,28	-9,1
     42,2097	     2149,29	-17,8	     2076,69	-6,1
     42,2116	     2109,92	-17,1	     2061,25	-8,4
     42,2136	     2095,75	-7,9	     2168,35	-17,5
     42,2155	     2135,32	-12,2	     2076,23	-11,4
     42,2175	     2096,12	-10,0	     2114,34	-10,9
     42,2195	     2046,45	-6,4	     2178,45	-13,9
     42,2214	      2177,4	-13,3	     2146,34	-7,0
     42,2234	     2173,17	-17,2	     2133,43	-8,8
     42,2253	     2127,44	-8,1	     2208,91	-16,2
     42,2273	      2197,6	-12,8	     2210,89	-13,7
     42,2292	     2259,22	-17,0	     2107,23	-9,4
     42,2312	      2161,3	-6,2	     2120,37	-9,0
     42,2331	     2154,14	-8,5	     2189,25	-12,5
     42,2351	     2199,41	-14,9	     2170,28	-6,6
      42,237	     2168,34	-16,6	     2210,47	-15,4
      42,239	     2179,02	-11,0	     2248,06	-16,5
      42,241	     2216,38	-13,3	     2161,64	-5,3
     42,2429	     2128,33	-10,8	     2180,43	-9,8
     42,2449	     2113,29	-5,0	     2207,19	-10,7
     42,2468	     2175,29	-18,2	     2235,42	-8,6
     42,2488	     2157,57	-13,9	     2204,63	-6,1
     42,2507	     2117,17	-5,2	     2224,41	-13,7
     42,2527	     2178,23	-8,4	     2230,69	-8,1
     42,2546	     2218,89	-12,9	     2214,83	-3,3
     42,2566	     2181,27	-9,5	     2253,49	-12,4
     42,2586	     2177,17	-5,4	     2286,68	-16,0
     42,2605	     2273,98	-17,0	     2203,34	-5,9
     42,2625	      2241,6	-14,9	     2220,33	-3,7
     42,2644	     2193,44	-5,8	     2321,15	-15,1
     42,2664	     2293,83	-15,1	     2309,99	-10,9
     42,2683	     2258,68	-9,5	     2235,28	-6,1
     42,2703	     2222,99	-3,3	     2273,02	-12,2
     42,2722	     2302,25	-9,3	     2316,68	-13,6
     42,2742	     2311,98	-14,5	     2260,78	-4,4
     42,2761	     2255,69	-1,1	     2246,15	-5,9
     42,2781	     2281,88	-2,3	     2365,18	-14,6
     42,2801	      2330,2	-8,4	        2376	-12,7
      42,282	     2245,07	-12,1	     2282,03	-2,8
      42,284	     2238,74	-6,6	     2307,69	-9,6
     42,2859	     2342,69	-13,6	     2360,71	-9,2
     42,2879	     2334,58	-15,0	     2331,95	-5,6
     42,2898	     2304,49	-0,2	     2341,98	-12,9
     42,2918	     2375,48	-6,5	     2383,52	-10,7
     42,2937	     2367,99	-11,3	     2329,35	-2,5
     42,2957	     2358,46	-7,7	     2323,16	-2,7
     42,2977	     2393,29	-6,0	     2428,57	-11,0
     42,2996	     2436,22	-10,3	     2426,41	-12,0
     42,3016	     2344,26	-9,3	     2339,36	-4,3
     42,3035	     2325,23	 0,4	     2352,42	-7,6
     42,3055	     2436,45	-10,3	     2479,02	-9,5
     42,3074	     2373,03	-13,4	     2471,94	-9,0
     42,3094	      2351,1	-7,2	     2397,95	-7,6
     42,3113	     2359,11	-5,6	     2436,04	-9,2
     42,3133	     2392,23	-9,6	      2439,9	-1,3
     42,3153	      2325,3	-6,7	     2409,71	-4,1
     42,3172	     2333,47	-3,7	     2471,52	-11,3
     42,3192	     2446,93	-9,6	      2498,9	-12,8
     42,3211	     2454,78	-13,9	     2401,81	-3,5
     42,3231	     2361,71	-5,3	     2433,07	-2,4
      42,325	     2470,93	-8,1	     2548,04	-6,7
      42,327	     2487,14	-10,3	     2522,25	-6,3
     42,3289	     2465,37	-10,1	     2481,55	-5,9
     42,3309	     2488,21	-0,1	     2512,53	-8,3
     42,3328	     2553,55	-5,6	     2496,35	-2,6
     42,3348	      2489,6	-4,7	     2470,57	-0,9
     42,3368	     2468,56	-2,5	     2474,29	-4,1
     42,3387	     2547,77	-8,0	     2598,65	-11,5
     42,3407	     2557,31	-9,7	     2595,56	-4,9
     42,3426	     2464,93	-0,2	      2509,3	-2,0
     42,3446	     2460,64	-1,7	     2534,48	-7,4
     42,3465	     2527,01	-10,5	     2618,54	-7,8
     42,3485	     2463,93	-6,3	     2627,11	-4,9
     42,3504	     2437,61	-3,4	     2596,48	-6,8
     42,3524	     2525,85	-6,2	     2639,72	-10,6
     42,3544	     2569,72	-9,6	     2657,89	-3,9
     42,3563	      2513,1	-1,7	     2530,58	-2,0
     42,3583	     2511,65	-2,1	     2546,68	-1,1
     42,3602	     2604,29	-6,1	     2648,46	-6,0
     42,3622	     2502,75	-0,4	     2635,76	-7,1
     42,3641	     2510,65	-2,8	     2557,29	-4,2
     42,3661	     2542,85	 0,2	     2611,76	-6,9
      42,368	     2591,44	-3,9	     2660,51	-5,3
       42,37	      2544,4	-4,1	      2618,1	 0,2
     42,3719	     2626,75	-2,9	     2683,12	-3,7
     42,3739	      2666,4	-4,7	     2709,94	-6,9
     42,3759	     2580,77	-3,6	     2643,27	-1,1
     42,3778	     2579,66	 2,0	     2622,06	 2,1
     42,3798	     2710,88	 0,8	     2740,84	-12,6
     42,3817	     2742,55	-1,9	     2772,22	-4,4
     42,3837	     2654,32	-1,1	     2747,79	 1,1
     42,3856	     2650,69	-0,7	     2729,36	-5,5
     42,3876	     2761,67	-8,3	     2777,56	-9,0
     42,3895	     2735,07	-8,9	        2748	 0,2
     42,3915	     2708,21	-1,5	      2715,9	 2,3
     42,3935	     2752,56	-0,9	     2780,75	-5,5
     42,3954	     2756,57	-3,3	     2780,33	-8,8
     42,3974	     2689,91	-2,7	     2790,63	-11,5
     42,3993	     2722,66	-1,0	     2734,01	-0,7
     42,4013	     2765,52	-3,0	     2771,24	-4,3
     42,4032	     2683,81	-1,5	     2813,46	 1,1
     42,4052	     2698,54	 2,9	     2816,37	10,7
     42,4071	     2706,96	 2,8	      2844,7	-3,6
     42,4091	     2802,47	-5,8	     2880,23	-8,4
      42,411	     2770,21	-5,1	     2821,73	 7,3
      42,413	     2743,36	 5,2	     2810,65	10,1
      42,415	     2790,99	 4,0	     2878,53	-2,9
     42,4169	     2806,95	-4,8	     2904,45	-3,1
     42,4189	     2785,46	-1,4	     2865,23	-3,3
     42,4208	     2824,84	 2,6	     2817,56	-1,9
     42,4228	     2858,45	 0,8	     2846,67	 1,5
     42,4247	     2819,96	-0,8	      2941,8	-1,6
     42,4267	     2806,99	 3,8	     2940,91	-0,4
     42,4286	     2877,19	-2,2	     2893,81	 3,8
     42,4306	     2898,68	-2,7	     2920,58	-1,8
     42,4326	     2826,99	 3,4	     2971,31	 0,5
     42,4345	     2825,68	 4,6	     2945,33	 7,2
     42,4365	     2926,41	-5,4	     2932,91	 2,1
     42,4384	     2918,01	-1,7	     2952,69	-2,9
     42,4404	     2852,94	 4,5	     2935,91	 7,0
     42,4423	     2872,14	 4,2	     2930,97	 1,9
     42,4443	      2954,9	-3,4	     2934,52	 7,9
     42,4462	     2946,37	-4,2	     3029,92	-2,6
     42,4482	     2883,93	 5,2	      2984,7	 5,7
     42,4501	     2917,91	 3,9	     3008,95	 0,9
     42,4521	     2970,65	 1,6	     3099,53	-5,4
     42,4541	     2924,47	 0,9	      3122,4	-0,8
      42,456	     2937,59	 5,4	     3029,69	 5,0
      42,458	     3063,03	 1,3	     3021,63	 6,5
     42,4599	     3070,22	-1,2	     3029,78	 2,3
     42,4619	     2976,65	 3,9	     3129,59	-1,6
     42,4638	      2977,9	 6,2	     3123,56	 0,6
     42,4658	     3095,42	 0,5	     3082,42	-2,7
     42,4677	     3094,04	 0,4	     3103,33	-0,2
     42,4697	     2995,87	 8,2	     3155,19	 6,3
     42,4717	     3031,27	10,3	     3144,55	 5,3
     42,4736	     3099,21	 1,0	     3122,16	 2,1
     42,4756	     3081,07	 1,7	     3174,82	 1,8
     42,4775	     3050,92	 9,1	      3158,7	 5,4
     42,4795	     3082,23	 7,4	     3144,15	 7,6
     42,4814	     3112,48	 2,5	     3177,32	 0,9
     42,4834	     3094,23	 6,3	     3191,89	-0,4
     42,4853	     3080,45	 4,1	     3185,72	 8,1
     42,4873	     3163,62	 5,3	     3183,75	11,5
     42,4892	     3187,22	 3,1	     3261,02	 1,0
     42,4912	     3121,24	 6,1	     3290,67	 1,8
     42,4932	     3109,69	 8,9	     3230,93	 7,9
     42,4951	     3240,19	 2,8	     3207,86	 8,7
     42,4971	     3234,34	 1,8	     3232,39	10,5
      42,499	     3159,17	 8,7	     3338,84	 4,0
      42,501	     3178,25	 7,6	     3336,46	 9,1
     42,5029	     3289,78	 3,4	     3250,02	 9,6
     42,5049	      3293,2	 3,0	     3275,83	 8,6
     42,5068	     3206,59	 8,5	      3392,6	 4,5
     42,5088	     3218,98	10,8	     3408,32	 8,3
     42,5108	      3310,9	 3,6	     3303,82	10,7
     42,5127	     3321,52	 2,5	     3336,52	 7,7
     42,5147	     3244,18	11,3	     3437,48	10,0
     42,5166	     3285,83	10,7	     3398,71	 9,6
     42,5186	      3349,2	 3,9	     3365,05	 7,7
     42,5205	     3323,88	 4,8	     3396,44	 8,4
     42,5225	     3305,75	 9,0	      3462,8	 5,5
     42,5244	     3335,33	 9,3	     3451,04	 8,5
     42,5264	      3371,7	 9,1	      3413,4	 8,0
     42,5283	     3313,95	 6,1	      3444,5	10,3
     42,5303	      3328,1	 7,9	     3529,88	 6,0
     42,5323	     3392,58	12,9	     3514,25	12,2
     42,5342	     3442,29	10,6	     3433,14	13,0
     42,5362	     3393,72	 7,2	     3444,96	10,1
     42,5381	     3402,65	15,6	     3543,25	15,5
     42,5401	     3451,68	12,4	     3541,83	14,5
      42,542	     3504,61	 9,4	     3516,74	 9,7
      42,544	     3431,09	10,8	     3537,04	 8,2
     42,5459	     3428,54	12,0	     3595,14	11,8
     42,5479	     3515,26	10,1	      3592,8	14,3
     42,5499	     3535,73	 9,7	     3547,68	11,0
     42,5518	     3435,43	13,6	     3593,98	 5,5
     42,5538	     3440,21	16,7	     3696,74	 5,5
     42,5557	     3553,22	13,9	      3672,6	13,1
     42,5577	     3572,93	13,6	     3599,63	12,8
     42,5596	     3507,66	11,8	     3632,53	 8,5
     42,5616	     3509,79	15,1	     3729,24	14,2
     42,5635	     3587,26	16,8	     3699,62	14,3
     42,5655	      3587,5	12,1	     3667,94	16,7
     42,5674	     3566,51	12,5	     3654,68	12,7
     42,5694	     3597,43	18,0	     3689,42	 5,7
     42,5714	     3635,48	18,0	     3733,02	14,9
     42,5733	     3675,64	13,5	     3723,05	17,3
     42,5753	     3579,61	14,4	     3687,74	12,7
     42,5772	     3593,18	19,3	     3741,08	10,1
     42,5792	     3700,65	15,7	     3828,14	17,6
     42,5811	     3704,61	15,3	     3759,03	19,1
     42,5831	     3625,98	17,8	     3774,44	14,2
      42,585	     3632,91	18,1	     3882,14	16,1
      42,587	     3749,68	17,5	     3861,41	16,9
      42,589	     3758,02	15,2	     3867,62	14,9
     42,5909	      3680,8	15,9	     3822,54	15,3
     42,5929	     3679,14	19,5	     3837,96	10,4
     42,5948	     3803,87	15,9	     3907,11	16,7
     42,5968	     3824,61	16,3	     3888,11	22,5
     42,5987	     3747,27	17,3	     3831,32	19,9
     42,6007	     3750,09	22,2	     3862,86	15,6
     42,6026	     3859,14	18,5	     3957,07	21,7
     42,6046	     3871,72	16,1	     3944,72	19,9
     42,6065	     3787,65	17,3	     3874,59	20,7
     42,6085	     3774,51	21,5	     3885,07	19,3
     42,6105	     3801,69	21,8	     3975,58	22,1
     42,6124	     3917,37	19,2	     3988,41	20,2
     42,6144	     3913,33	17,0	        3917	24,4
     42,6163	      3814,4	21,8	     3944,29	16,0
     42,6183	     3830,16	24,7	     3996,25	21,4
     42,6202	     3938,28	16,9	     3986,87	21,2
     42,6222	     3913,29	18,1	     3980,08	21,9
     42,6241	     3871,93	21,0	     3976,09	21,9
     42,6261	     3900,96	23,9	     4008,44	16,5
     42,6281	     3928,68	24,6	     4052,48	23,9
       42,63	     3952,49	17,1	     4046,24	29,8
      42,632	      3936,9	17,2	     4052,01	21,2
     42,6339	     3948,95	25,8	     4078,76	19,9
     42,6359	     3965,99	25,5	     4181,68	26,0
     42,6378	     3992,68	19,1	     4171,74	26,5
     42,6398	     3976,24	17,7	     4096,47	25,2
     42,6417	     3985,32	26,2	     4107,13	27,0
     42,6437	     4012,26	27,7	     4197,98	26,5
     42,6456	     4033,15	21,3	     4107,08	32,6
     42,6476	     4006,84	23,1	      4102,3	27,0
     42,6496	     4055,94	27,3	     4087,96	25,0
     42,6515	     4074,46	27,0	     4207,82	19,4
     42,6535	     4096,41	28,7	      4231,8	24,3
     42,6554	     4076,42	22,7	     4135,65	32,2
     42,6574	     4046,22	28,4	     4167,77	28,1
     42,6593	     4094,31	30,7	     4250,93	29,2
     42,6613	     4129,56	26,5	     4239,75	25,8
     42,6632	        4090	21,7	     4159,66	30,3
     42,6652	      4062,3	26,9	     4168,66	29,4
     42,6672	     4149,76	30,1	      4263,5	22,8
     42,6691	     4194,56	27,8	     4292,95	33,1
     42,6711	     4155,92	24,6	     4288,71	25,5
      42,673	     4138,35	27,9	      4171,4	32,5
      42,675	     4146,33	30,6	     4189,64	32,3
     42,6769	     4246,34	28,2	     4278,25	24,9
     42,6789	     4260,68	29,3	     4274,44	27,2
     42,6808	     4177,99	28,7	     4197,63	37,5
     42,6828	     4178,48	31,4	     4230,26	28,4
     42,6847	      4294,6	29,5	     4294,34	25,9
     42,6867	     4284,73	34,7	     4335,62	30,7
     42,6887	     4222,26	31,0	     4335,34	32,4
     42,6906	     4208,18	31,3	     4297,26	31,6
     42,6926	     4255,41	37,1	     4339,65	33,7
     42,6945	      4267,5	36,5	     4328,06	29,2
     42,6965	     4303,28	31,6	     4331,42	31,3
     42,6984	      4292,9	32,8	     4304,24	42,8
     42,7004	     4276,72	37,2	     4263,89	34,8
     42,7023	     4294,42	37,1	     4292,66	34,2
     42,7043	     4347,55	28,7	     4379,38	37,9
     42,7063	     4310,01	31,7	     4368,34	35,1
     42,7082	     4273,18	38,1	     4310,08	37,3
     42,7102	     4283,92	39,9	     4304,89	38,7
     42,7121	     4377,83	33,4	     4437,24	34,3
     42,7141	     4367,81	32,7	     4412,24	39,4
      42,716	      4309,4	37,4	     4412,11	44,2
      42,718	     4311,98	39,5	     4388,12	40,1
     42,7199	     4420,83	36,2	     4382,41	31,3
     42,7219	     4425,56	36,0	     4415,19	37,4
     42,7239	     4359,63	38,1	     4404,06	37,9
     42,7258	      4335,6	41,5	     4434,79	41,5
     42,7278	      4457,4	39,2	     4449,91	37,7
     42,7297	     4452,18	38,5	     4464,93	36,7
     42,7317	     4367,99	38,9	     4515,67	43,1
     42,7336	     4372,37	40,5	     4493,25	46,3
     42,7356	     4464,84	42,8	     4414,67	38,0
     42,7375	     4460,16	41,8	     4400,11	39,8
     42,7395	     4437,98	37,7	      4506,4	45,2
     42,7414	     4416,49	39,2	     4537,74	38,4
     42,7434	     4414,12	43,6	     4478,33	45,0
     42,7454	     4433,64	45,1	     4431,64	42,2
     42,7473	      4455,1	37,8	     4520,73	46,5
     42,7493	     4428,96	40,4	     4511,46	42,0
     42,7512	        4420	40,2	     4457,27	43,2
     42,7532	     4440,79	45,1	     4430,75	50,3
     42,7551	      4449,6	48,1	     4447,22	44,2
     42,7571	     4487,62	42,3	      4530,6	47,3
      42,759	      4480,9	41,5	     4558,93	38,6
      42,761	      4441,9	48,0	     4457,12	45,9
      42,763	     4473,63	48,4	     4433,99	47,0
     42,7649	      4535,3	45,2	     4541,57	43,5
     42,7669	      4527,3	44,4	     4574,96	47,7
     42,7688	      4507,5	41,4	     4523,86	54,7
     42,7708	     4467,08	48,3	     4501,43	45,1
     42,7727	     4504,33	48,2	     4500,26	50,3
     42,7747	      4566,2	44,1	      4497,3	46,8
     42,7766	      4454,9	47,8	     4500,84	45,6
     42,7786	     4454,06	49,3	     4491,88	53,7
     42,7805	     4527,71	49,9	     4409,83	49,8
     42,7825	     4554,81	47,7	     4455,17	43,0
     42,7845	     4494,09	46,9	     4566,01	54,6
     42,7864	     4479,97	46,5	     4562,58	47,3
     42,7884	     4465,96	47,0	     4430,93	53,6
     42,7903	     4532,73	51,2	     4419,28	48,6
     42,7923	     4561,68	48,4	     4520,18	43,5
     42,7942	      4522,8	46,9	     4528,31	48,0
     42,7962	     4502,81	46,3	     4488,12	53,9
     42,7981	     4498,53	52,4	     4522,99	49,9
     42,8001	     4496,31	52,3	     4501,98	50,9
     42,8021	     4558,37	48,2	     4501,65	49,3
      42,804	     4532,36	49,6	     4578,05	53,2
      42,806	     4449,72	53,4	     4542,82	57,0
     42,8079	     4532,78	53,4	     4438,56	50,0
     42,8099	     4553,97	52,7	     4465,09	57,0
     42,8118	      4530,2	48,7	     4473,48	50,3
     42,8138	     4493,74	49,6	     4588,49	49,2
     42,8157	     4485,16	51,9	     4566,14	58,0
     42,8177	     4566,89	55,8	     4444,51	51,2
     42,8196	     4566,36	57,0	     4434,03	62,3
     42,8216	     4513,48	53,7	     4547,94	55,6
     42,8236	     4483,36	53,2	     4548,24	57,8
     42,8255	     4468,44	58,8	     4438,78	60,2
     42,8275	      4491,6	59,2	      4414,7	58,3
     42,8294	     4499,18	62,0	     4435,05	56,6
     42,8314	      4488,1	54,7	     4437,49	53,8
     42,8333	     4476,79	53,4	     4490,82	58,4
     42,8353	     4440,32	57,9	     4484,39	64,9
     42,8372	     4451,76	60,3	     4466,88	54,4
     42,8392	     4519,27	56,8	     4392,98	61,2
     42,8412	     4528,77	56,0	     4406,89	55,1
     42,8431	     4414,32	58,9	     4455,42	55,6
     42,8451	     4411,99	58,2	     4463,13	64,2
      42,847	     4494,49	62,3	     4377,59	55,3
      42,849	     4515,46	61,0	     4372,99	62,8
     42,8509	     4405,09	61,2	     4465,06	58,4
     42,8529	     4403,32	57,4	      4462,8	56,6
     42,8548	     4451,05	64,7	     4382,55	63,1
     42,8568	     4462,91	61,1	      4390,1	56,9
     42,8587	     4472,93	58,0	     4397,36	60,1
     42,8607	     4457,31	57,7	     4387,05	59,4
     42,8627	     4380,31	61,6	     4466,02	62,0
     42,8646	     4387,43	62,7	     4426,92	65,2
     42,8666	     4484,85	62,0	     4327,79	63,8
     42,8685	     4471,16	61,6	     4278,69	64,7
     42,8705	     4377,37	62,6	     4373,55	64,1
     42,8724	     4360,66	60,9	     4361,85	58,4
     42,8744	     4359,75	65,7	     4339,97	64,7
     42,8763	     4425,58	64,2	     4334,21	72,3
     42,8783	     4419,74	67,6	     4276,69	61,5
     42,8803	     4390,97	62,5	     4283,86	67,3
     42,8822	     4376,79	62,9	     4317,05	60,7
     42,8842	     4333,31	68,2	      4392,2	62,3
     42,8861	     4443,81	66,6	     4393,87	65,6
     42,8881	      4416,4	67,2	     4276,22	64,5
       42,89	     4325,63	64,6	     4273,95	67,4
      42,892	     4302,59	66,2	     4332,14	67,0
     42,8939	     4286,99	65,2	     4328,31	66,3
     42,8959	      4366,1	69,6	     4262,76	69,4
     42,8979	     4380,61	70,5	     4251,35	66,4
     42,8998	     4322,13	65,2	     4207,04	60,9
     42,9018	     4311,93	64,3	     4236,44	64,1
     42,9037	     4276,09	70,6	     4284,79	68,0
     42,9057	      4282,4	70,0	     4276,26	70,5
     42,9076	      4373,8	67,4	     4172,28	66,8
     42,9096	     4373,55	66,9	      4148,5	70,4
     42,9115	     4247,37	66,5	     4187,28	67,3
     42,9135	     4250,03	66,8	     4266,94	67,6
     42,9154	     4318,17	70,6	     4246,94	71,9
     42,9174	     4295,11	71,1	     4176,52	71,0
     42,9194	     4269,68	68,4	      4137,7	72,5
     42,9213	     4260,81	68,2	     4067,88	70,5
     42,9233	     4233,28	72,0	        4088	68,5
     42,9252	     4222,88	74,1	     4158,79	77,1
     42,9272	     4223,54	73,4	     4191,21	73,2
     42,9291	     4264,95	71,6	     4104,63	70,0
     42,9311	     4252,37	72,9	     4108,22	74,5
      42,933	     4148,86	75,1	     4119,59	72,4
      42,935	     4135,61	73,4	     4118,25	72,3
      42,937	     4218,67	75,5	     4168,09	75,1
     42,9389	     4230,95	73,6	     4064,54	70,7
     42,9409	     4181,06	71,4	     4065,57	74,7
     42,9428	     4194,09	70,6	     4106,38	72,9
     42,9448	     4123,36	75,7	     4124,48	68,0
     42,9467	     4125,05	75,5	     4081,55	72,2
     42,9487	     4161,23	72,9	     4118,61	78,6
     42,9506	     4160,96	70,0	     4125,65	67,8
     42,9526	     4160,06	69,6	     3992,57	75,8
     42,9545	     4046,16	72,2	     4012,91	73,4
     42,9565	     4124,75	76,3	     4077,97	76,2
     42,9585	     4134,31	76,7	     4068,13	73,5
     42,9604	     4115,11	73,1	     4008,57	79,4
     42,9624	     4113,93	71,6	     4014,35	78,5
     42,9643	     4014,86	75,8	     3960,32	74,7
     42,9663	     4007,24	77,7	     3958,41	76,5
     42,9682	     4103,88	78,7	     4069,47	76,0
     42,9702	     4086,57	77,6	     4053,06	73,3
     42,9721	     3996,76	73,3	     3968,88	78,9
     42,9741	     3979,09	77,1	     3947,06	74,8
     42,9761	     3947,93	77,8	     3923,42	76,0
      42,978	     3985,94	83,1	     3915,97	73,5
       42,98	     3991,07	80,4	     3991,48	73,3
     42,9819	     4023,14	78,3	     3975,86	83,0
     42,9839	     4040,69	74,7	      3858,5	77,4
     42,9858	     3910,55	77,5	      3837,4	81,4
     42,9878	     3900,49	75,4	      3900,7	79,7
     42,9897	     3976,93	78,4	     3908,73	74,5
     42,9917	        3997	75,8	     3944,43	77,0
     42,9936	      3950,6	78,2	      3932,5	85,9
     42,9956	     3924,46	78,0	     3915,35	82,5
     42,9976	     3849,67	82,2	     3789,38	83,8
     42,9995	     3848,89	84,2	     3787,69	78,4
     43,0015	     3943,32	82,3	     3888,73	78,5
     43,0034	     3942,11	83,6	     3850,92	79,3
     43,0054	     3843,86	80,1	     3834,03	78,1
     43,0073	     3827,05	80,1	     3742,53	75,3
     43,0093	     3799,29	84,5	     3727,03	77,4
     43,0112	      3792,3	84,4	      3800,1	75,6
     43,0132	     3870,81	81,0	     3767,17	78,2
     43,0152	     3874,24	80,9	     3748,03	84,8
     43,0171	     3753,39	81,6	     3749,61	83,3
     43,0191	     3751,91	78,4	     3677,64	85,2
      43,021	     3786,28	83,6	     3670,96	77,8
      43,023	      3783,7	82,4	     3682,96	83,0
     43,0249	     3856,34	81,2	     3792,28	86,3
     43,0269	     3841,24	85,3	     3762,47	84,6
     43,0288	      3697,9	81,8	     3698,72	85,4
     43,0308	     3688,69	81,5	     3687,58	83,0
     43,0327	     3719,42	87,3	     3620,58	77,5
     43,0347	     3716,13	88,6	     3619,69	79,7
     43,0367	     3735,99	86,9	      3694,8	84,0
     43,0386	     3743,27	84,9	     3668,03	82,0
     43,0406	      3726,5	84,0	     3673,64	85,8
     43,0425	     3627,45	86,8	     3618,58	85,7
     43,0445	     3613,75	86,9	     3597,85	81,5
     43,0464	     3708,06	86,5	     3575,09	84,7
     43,0484	     3703,15	87,3	     3636,32	85,1
     43,0503	     3673,43	82,7	     3627,44	84,8
     43,0523	     3651,59	82,9	     3642,84	84,9
     43,0543	     3580,31	87,6	      3518,8	84,5
     43,0562	     3578,79	89,6	      3507,5	87,7
     43,0582	     3668,51	86,6	     3557,69	83,3
     43,0601	     3660,79	89,9	     3562,02	82,7
     43,0621	     3558,89	87,1	     3581,52	87,1
      43,064	     3561,65	86,6	     3579,88	87,7
      43,066	     3525,71	88,9	     3541,68	86,6
     43,0679	     3531,06	88,1	     3442,49	88,7
     43,0699	     3623,38	89,7	     3473,13	89,7
     43,0718	      3613,7	88,4	     3550,86	87,6
     43,0738	     3525,25	85,8	     3550,66	87,3
     43,0758	     3512,27	87,0	     3538,03	90,7
     43,0777	     3473,84	91,2	      3544,4	93,0
     43,0797	     3465,93	89,5	     3422,27	90,0
     43,0816	     3455,05	90,2	     3396,77	90,1
     43,0836	     3555,34	87,5	      3474,7	90,1
     43,0855	     3559,28	91,4	     3460,22	87,0
     43,0875	     3482,44	89,9	     3461,47	89,8
     43,0894	     3423,21	91,8	     3436,28	91,7
     43,0914	     3398,57	90,4	     3436,64	90,9
     43,0934	     3504,94	93,1	     3333,86	87,1
     43,0953	     3483,67	92,8	      3414,1	86,5
     43,0973	     3430,09	89,2	     3417,29	87,5
     43,0992	     3417,74	88,9	     3411,88	90,0
     43,1012	      3345,3	92,0	     3435,27	92,9
     43,1031	     3346,92	90,2	     3404,67	90,6
     43,1051	     3432,11	91,3	     3279,75	92,1
      43,107	     3437,21	91,5	     3301,24	92,0
      43,109	     3448,08	91,8	     3370,19	89,3
     43,1109	     3367,67	89,8	     3356,97	89,0
     43,1129	     3347,49	91,5	     3383,88	93,6
     43,1149	     3323,76	93,4	     3362,22	93,1
     43,1168	     3289,55	94,2	     3256,05	93,8
     43,1188	     3380,89	93,3	     3270,18	93,8
     43,1207	     3374,98	94,8	      3322,2	90,3
     43,1227	     3280,76	93,9	     3282,44	93,4
     43,1246	     3285,25	93,5	     3288,09	91,9
     43,1266	     3236,77	93,7	     3324,41	97,5
     43,1285	     3218,18	94,2	     3304,53	89,9
     43,1305	     3318,62	93,0	      3163,7	95,1
     43,1325	     3295,66	95,1	     3152,45	92,3
     43,1344	     3233,44	88,5	     3202,84	90,9
     43,1364	     3225,98	92,9	     3192,32	89,4
     43,1383	     3227,14	94,8	      3282,8	94,8
     43,1403	     3207,79	99,8	     3262,06	93,2
     43,1422	     3187,49	94,3	     3141,27	93,7
     43,1442	     3291,83	98,1	     3111,77	96,3
     43,1461	     3261,81	96,2	     3110,16	93,0
     43,1481	     3191,69	94,2	     3108,35	95,3
       43,15	     3197,37	92,1	      3185,1	97,2
      43,152	     3101,53	95,0	     3199,12	94,6
      43,154	     3111,28	94,2	     3128,06	97,0
     43,1559	     3227,57	96,5	     3140,46	94,4
     43,1579	     3225,83	96,8	     3068,16	92,2
     43,1598	     3198,86	97,4	     3057,94	93,9
     43,1618	      3148,5	93,3	     3041,36	94,8
     43,1637	     3120,46	94,8	     3163,74	93,4
     43,1657	     3046,83	98,4	     3158,33	96,1
     43,1676	     3032,31	96,5	     3113,58	99,1
     43,1696	     3126,92	96,9	     3124,62	98,8
     43,1716	     3126,67	98,1	     3002,92	97,2
     43,1735	     3096,33	94,5	     3029,15	94,9
     43,1755	     3115,64	95,2	      3021,7	95,4
     43,1774	     3002,26	94,6	     3016,96	92,8
     43,1794	     3003,01	97,1	     3113,26	94,7
     43,1813	     3070,31	98,8	     3103,54	98,1
     43,1833	     3063,87	100,7	     2986,63	97,1
     43,1852	     3099,42	95,2	     2976,31	99,8
     43,1872	     3070,94	98,1	     2947,63	96,1
     43,1891	     2946,87	101,1	     2931,27	94,8
     43,1911	     2931,96	97,7	     3034,47	98,1
     43,1931	     2953,65	97,7	     3026,94	98,4
      43,195	     3011,12	99,9	     2998,96	98,9
      43,197	     2996,72	99,8	     3016,49	100,4
     43,1989	     3051,52	98,8	     2898,43	98,7
     43,2009	     2965,24	96,9	     2889,89	97,9
     43,2028	     2966,85	100,4	     2918,76	97,2
     43,2048	     2902,67	100,2	     3006,67	99,0
     43,2067	     2881,56	100,4	     2993,59	99,3
     43,2087	     2979,88	101,8	     2941,53	101,5
     43,2107	     2945,94	101,3	     2935,11	100,5
     43,2126	     2985,93	100,0	     2937,43	99,1
     43,2146	     2975,27	97,8	     2817,84	97,6
     43,2165	     2871,26	94,5	     2811,91	95,6
     43,2185	        2871	97,7	     2895,85	97,4
     43,2204	     2835,65	100,6	     2861,51	96,1
     43,2224	     2824,35	101,0	     2894,69	100,1
     43,2243	     2925,24	99,4	     2898,52	101,5
     43,2263	     2930,46	100,9	     2782,63	101,7
     43,2282	     2857,88	100,9	     2766,46	102,3
     43,2302	     2854,46	101,9	     2800,07	100,1
     43,2322	     2758,93	101,3	     2808,01	98,7
     43,2341	     2768,26	100,3	     2913,32	102,2
     43,2361	     2814,43	102,5	     2896,71	97,7
      43,238	     2800,49	102,8	     2820,62	100,5
       43,24	     2875,34	99,3	     2821,33	101,9
     43,2419	     2874,68	103,5	     2733,55	98,5
     43,2439	     2769,56	101,4	      2714,2	101,2
     43,2458	     2753,31	101,4	      2760,4	98,7
     43,2478	     2744,58	101,2	     2749,92	101,0
     43,2498	     2728,69	105,5	     2807,18	105,1
     43,2517	     2718,91	102,3	     2815,47	101,7
     43,2537	     2814,46	102,6	     2738,51	103,1
     43,2556	     2791,76	101,3	     2737,17	102,6
     43,2576	     2789,29	99,8	     2676,11	101,3
     43,2595	     2681,15	100,7	     2664,19	100,8
     43,2615	      2684,4	100,3	     2646,22	104,5
     43,2634	     2694,64	103,1	     2727,84	101,7
     43,2654	     2690,24	106,2	     2742,19	102,4
     43,2673	     2675,68	105,1	      2745,8	105,3
     43,2693	     2774,22	103,7	     2628,41	106,3
     43,2713	     2776,56	101,3	     2637,53	103,8
     43,2732	     2701,32	101,4	     2603,29	102,8
     43,2752	     2699,72	100,3	     2594,44	100,1
     43,2771	     2616,53	102,7	     2604,29	104,6
     43,2791	     2602,92	102,3	     2685,85	100,5
      43,281	     2703,48	103,1	      2689,8	102,1
      43,283	     2704,56	105,6	     2681,89	106,5
     43,2849	     2666,86	106,4	     2689,24	104,5
     43,2869	     2704,08	104,6	     2605,38	106,0
     43,2889	     2700,95	103,2	     2610,02	102,5
     43,2908	     2584,51	101,5	     2592,16	100,2
     43,2928	     2588,52	101,2	     2554,29	102,8
     43,2947	     2582,01	104,3	     2646,71	99,1
     43,2967	     2568,34	106,4	     2616,95	103,3
     43,2986	     2660,59	105,0	     2623,49	106,9
     43,3006	     2647,49	106,8	     2639,71	106,5
     43,3025	     2598,93	106,9	     2519,11	105,7
     43,3045	     2592,36	105,4	     2518,82	104,2
     43,3064	     2602,37	99,3	     2544,85	103,2
     43,3084	     2514,51	105,5	     2519,46	102,2
     43,3104	     2540,59	102,4	     2604,04	103,4
     43,3123	     2538,29	105,0	     2584,23	104,2
     43,3143	     2533,39	108,0	     2579,37	105,4
     43,3162	     2618,22	104,3	     2588,85	108,2
     43,3182	     2603,87	107,9	      2465,6	107,1
     43,3201	     2533,59	105,7	     2477,23	108,6
     43,3221	     2523,55	104,4	     2490,04	104,1
      43,324	     2421,35	107,2	     2479,23	104,1
      43,326	     2433,99	102,9	     2481,14	101,0
      43,328	     2492,46	106,5	      2537,3	104,3
     43,3299	     2481,87	106,2	     2535,49	105,3
     43,3319	      2570,6	103,8	     2474,39	108,0
     43,3338	     2558,78	108,1	     2495,75	109,7
     43,3358	     2533,32	106,9	     2388,71	107,3
     43,3377	        2477	106,1	     2418,97	107,3
     43,3397	     2480,71	104,8	     2441,45	107,5
     43,3416	     2391,64	107,3	     2447,34	102,2
     43,3436	     2428,19	104,7	     2520,17	104,0
     43,3456	      2466,1	105,8	     2478,48	103,1
     43,3475	     2448,29	107,7	     2466,89	106,4
     43,3495	      2527,9	108,2	     2470,68	109,0
     43,3514	     2500,33	109,0	     2355,05	111,6
     43,3534	     2435,25	107,2	     2390,45	108,7
     43,3553	     2431,44	104,9	     2380,05	106,6
     43,3573	     2334,56	108,1	     2354,96	105,4
     43,3592	     2343,04	106,2	      2441,6	104,5
     43,3612	     2405,32	106,7	     2393,54	105,0
     43,3631	     2389,99	107,9	     2438,99	105,3
     43,3651	     2380,42	108,4	     2440,81	107,7
     43,3671	      2458,4	108,8	     2326,65	108,8
      43,369	     2430,62	109,0	     2347,67	110,9
      43,371	     2397,94	107,1	     2316,57	109,7
     43,3729	     2387,11	105,2	     2327,96	106,4
     43,3749	     2291,05	106,5	     2399,08	104,9
     43,3768	     2310,25	105,2	     2362,18	104,9
     43,3788	     2343,78	109,4	     2400,42	106,4
     43,3807	     2311,86	110,9	     2395,31	107,9
     43,3827	     2389,42	110,8	     2397,02	108,2
     43,3847	     2354,95	111,2	     2302,66	111,9
     43,3866	      2372,4	106,1	      2326,3	110,4
     43,3886	     2401,25	106,5	     2234,97	107,5
     43,3905	     2297,32	106,6	     2226,92	108,0
     43,3925	     2313,86	105,8	     2301,81	104,2
     43,3944	     2241,58	108,4	     2274,21	107,7
     43,3964	     2230,38	110,1	     2349,16	106,0
     43,3983	     2315,99	112,5	     2331,97	107,4
     43,4003	     2287,72	111,1	     2305,51	112,9
     43,4022	     2338,81	109,1	     2331,31	109,9
     43,4042	     2351,22	108,8	      2226,2	111,3
     43,4062	     2285,76	108,7	     2243,58	111,2
     43,4081	     2301,02	107,4	     2213,43	105,9
     43,4101	     2199,54	108,5	     2164,27	108,4
      43,412	     2199,69	109,7	      2288,2	107,5
      43,414	     2198,38	112,2	     2274,86	108,7
     43,4159	     2179,37	112,0	     2291,09	111,3
     43,4179	     2300,43	110,7	     2312,52	109,3
     43,4198	     2287,99	109,0	     2306,85	108,4
     43,4218	     2269,69	110,1	      2202,3	109,3
     43,4238	     2296,17	107,3	     2202,59	111,4
     43,4257	     2307,03	109,8	     2140,87	109,1
     43,4277	     2220,29	108,3	     2139,16	111,8
     43,4296	     2241,64	109,5	     2211,16	109,6
     43,4316	     2126,89	113,4	     2178,67	108,9
     43,4335	     2152,73	108,3	     2272,48	110,0
     43,4355	      2162,9	111,6	     2230,44	109,3
     43,4374	     2132,53	111,1	     2193,25	108,9
     43,4394	     2237,78	110,7	     2193,22	109,4
     43,4413	     2205,48	112,2	     2109,74	113,0
     43,4433	      2212,1	108,5	     2117,42	112,9
     43,4453	     2226,06	108,8	     2121,61	113,5
     43,4472	     2127,86	111,1	     2102,72	109,9
     43,4492	     2176,28	108,9	     2081,68	110,1
     43,4511	     2098,85	111,8	     2192,55	108,4
     43,4531	     2091,19	113,2	     2147,63	107,8
      43,455	     2092,74	115,4	     2217,05	109,6
      43,457	     2065,88	113,9	     2208,62	111,2
     43,4589	     2164,18	113,7	     2134,65	113,8
     43,4609	     2136,98	112,1	     2177,63	112,0
     43,4629	     2171,38	107,8	     2054,68	113,7
     43,4648	     2210,05	110,4	     2043,68	110,4
     43,4668	     2114,41	108,4	     2059,63	110,0
     43,4687	     2136,98	110,5	     2010,67	108,8
     43,4707	      2043,6	111,0	     2139,65	110,4
     43,4726	     2017,36	114,5	     2124,01	110,7
     43,4746	     2043,67	113,7	     2160,61	112,8
     43,4765	     2026,11	113,3	     2183,51	110,6
     43,4785	     2115,52	108,7	     2090,74	114,2
     43,4804	     2116,74	112,2	     2097,17	113,3
     43,4824	     2094,37	115,3	     2085,92	114,8
     43,4844	     2138,23	111,8	     2001,99	113,7
     43,4863	     2141,47	113,8	     2002,31	115,9
     43,4883	     2055,36	110,1	     2002,28	111,6
     43,4902	     2091,13	109,2	     1980,16	111,4
     43,4922	     1989,02	111,9	     2070,93	110,8
     43,4941	     1998,76	111,1	     2021,67	107,8
     43,4961	     1996,86	116,1	     2100,14	110,1
      43,498	     1968,19	115,2	     2081,71	112,5
        43,5	     1964,41	109,9	     2165,19	115,6

