X-Data [Hz]	Piezo (M - Filtered) [mV]	Phase [Deg]	Piezo (M - Filtered) [mV]	Phase [Deg]	
	002: [07-08-24 08:26]		003: [07-08-24 08:30]	
          41	     88,6849	74,2	     103,901	73,6
     41,0029	     95,4869	73,8	     103,842	73,8
     41,0059	     98,7451	73,6	     104,154	73,6
     41,0088	     100,333	73,5	      104,24	73,6
     41,0117	     101,564	73,3	     104,551	73,4
     41,0147	     102,223	73,1	     105,075	73,6
     41,0176	      102,61	73,5	     104,989	73,5
     41,0205	      103,14	73,3	     105,168	73,6
     41,0235	     103,163	73,1	     105,559	73,8
     41,0264	     103,484	73,5	     105,664	73,7
     41,0293	     103,646	73,4	     106,035	73,6
     41,0323	      104,02	73,4	     106,067	73,7
     41,0352	      104,15	73,5	     106,417	73,8
     41,0381	     104,324	73,5	     106,772	73,8
     41,0411	     104,594	73,7	      106,91	73,7
      41,044	     104,926	73,7	      107,18	73,7
     41,0469	     105,268	73,5	     107,531	74,0
     41,0499	     105,261	73,7	     107,744	74,2
     41,0528	     105,719	73,7	     107,855	73,7
     41,0557	     105,756	73,3	     108,167	74,1
     41,0587	     105,917	73,6	     108,295	74,2
     41,0616	     106,251	73,5	     108,664	74,2
     41,0645	     106,342	73,8	     109,092	74,0
     41,0674	     106,812	73,9	     109,227	74,2
     41,0704	     106,967	73,8	     109,544	74,2
     41,0733	     107,241	73,8	     109,706	74,2
     41,0762	     107,521	74,0	     109,988	74,1
     41,0792	     107,895	73,9	     110,123	74,2
     41,0821	     107,832	73,8	     110,454	74,3
      41,085	     108,247	73,8	     110,663	74,3
      41,088	      108,51	74,0	      111,08	74,1
     41,0909	     108,704	74,0	     111,251	74,2
     41,0938	     109,023	73,9	     111,444	74,5
     41,0968	     109,077	74,0	      111,84	74,4
     41,0997	     109,416	74,1	     112,197	74,4
     41,1026	     109,855	74,2	     112,491	74,3
     41,1056	     110,117	74,0	     112,728	74,5
     41,1085	      110,15	74,1	     112,935	74,5
     41,1114	     110,625	74,3	     113,142	74,4
     41,1144	     110,883	74,2	     113,356	74,4
     41,1173	     111,018	74,1	      113,82	74,8
     41,1202	     111,141	74,0	     113,904	74,7
     41,1232	     111,469	74,4	     114,274	74,4
     41,1261	     111,941	74,3	     114,806	74,4
      41,129	     111,915	74,2	      114,88	74,5
      41,132	     112,412	74,1	     115,154	74,7
     41,1349	     112,667	74,2	     115,399	74,5
     41,1378	     113,121	74,5	      115,87	74,8
     41,1408	     113,014	74,3	     115,958	74,7
     41,1437	     113,527	74,5	      116,42	75,0
     41,1466	     113,634	74,2	     116,596	74,8
     41,1496	     113,885	74,4	     117,072	74,6
     41,1525	     114,297	74,4	     117,329	74,7
     41,1554	     114,517	74,3	     117,553	74,9
     41,1584	     114,753	74,3	     117,704	74,8
     41,1613	     115,214	74,4	      118,22	74,9
     41,1642	     115,451	74,5	     118,406	74,9
     41,1672	     115,598	74,5	     118,719	75,2
     41,1701	     116,037	74,5	     118,935	75,1
      41,173	     116,158	74,6	     119,627	75,0
      41,176	     116,548	74,8	      119,86	75,1
     41,1789	     117,023	74,8	     120,028	74,9
     41,1818	     117,214	74,6	     120,596	75,2
     41,1847	     117,552	74,7	     120,723	75,2
     41,1877	     117,771	74,7	     120,985	75,3
     41,1906	      117,92	74,9	     121,293	75,0
     41,1936	     118,415	74,7	     121,831	75,4
     41,1965	     118,573	74,8	     122,102	75,4
     41,1994	     118,967	74,9	     122,508	75,3
     41,2023	     119,163	75,0	     122,734	75,2
     41,2053	     119,612	74,9	      123,09	75,2
     41,2082	     120,079	74,8	     123,411	75,6
     41,2111	     120,111	74,9	     124,082	75,6
     41,2141	     120,506	75,1	     124,067	75,6
      41,217	     120,821	75,2	     124,497	75,4
     41,2199	     121,028	75,0	     124,843	75,5
     41,2229	     121,474	75,0	     125,558	75,7
     41,2258	     122,012	75,0	     125,693	75,7
     41,2287	     122,226	75,2	     125,868	75,8
     41,2317	     122,239	75,2	     126,407	75,7
     41,2346	     122,916	75,3	     126,872	75,7
     41,2375	       123,2	75,1	     127,056	75,9
     41,2405	     123,425	75,1	     127,959	75,7
     41,2434	      123,67	75,3	     128,321	75,8
     41,2463	     124,302	75,4	     128,212	76,0
     41,2493	     124,445	75,3	     129,233	75,8
     41,2522	     124,887	75,4	     131,266	76,3
     41,2551	     125,116	75,3	     128,382	77,2
     41,2581	     125,617	75,4	     127,864	74,8
      41,261	     125,747	75,8	     141,919	74,1
     41,2639	      126,35	75,5	      131,83	83,6
     41,2669	     126,464	75,4	     104,226	73,3
     41,2698	     127,009	75,7	     190,373	58,4
     41,2727	     127,156	75,7	     328,992	77,8
     41,2757	     127,825	75,7	     408,797	94,1
     41,2786	     128,005	75,6	     461,901	106,7
     41,2815	     128,171	75,7	     494,325	115,7
     41,2845	     128,777	75,8	     515,692	122,5
     41,2874	     129,266	75,7	     531,881	127,9
     41,2903	     129,475	75,9	      541,43	131,5
     41,2933	     129,919	76,0	     549,087	134,3
     41,2962	     130,446	75,9	     554,719	136,7
     41,2991	     130,755	76,0	     559,568	139,2
     41,3021	     131,114	76,2	     563,034	140,8
      41,305	     131,545	76,2	     565,836	142,1
     41,3079	     131,851	76,1	     568,026	143,5
     41,3109	     132,074	76,0	     570,128	144,5
     41,3138	     132,457	76,1	     571,885	145,9
     41,3167	     133,054	76,2	     572,971	146,9
     41,3196	     133,325	76,3	     574,079	147,8
     41,3226	     133,638	76,5	     575,114	148,6
     41,3255	     134,234	76,4	     575,907	149,5
     41,3284	     134,625	76,4	      576,67	150,2
     41,3314	     135,207	76,4	     577,211	150,9
     41,3343	     135,612	76,5	     577,622	151,3
     41,3372	     135,846	76,6	     577,992	152,0
     41,3402	      136,31	76,5	     578,494	152,8
     41,3431	     136,853	76,5	     578,884	153,3
      41,346	     137,278	76,5	      579,32	153,9
      41,349	     137,553	76,6	     579,355	154,3
     41,3519	     137,871	76,8	     579,559	154,7
     41,3548	     138,631	76,9	     579,706	155,1
     41,3578	     139,002	76,5	     579,651	155,7
     41,3607	     139,198	76,7	     579,587	156,3
     41,3636	      139,83	76,8	     579,807	156,7
     41,3666	     140,403	76,9	     579,694	157,1
     41,3695	     140,858	77,0	     579,935	157,4
     41,3724	     141,293	77,0	     579,716	157,7
     41,3754	     141,636	76,9	     579,712	158,3
     41,3783	     141,988	77,0	      579,97	158,7
     41,3812	     142,667	77,2	     579,642	159,2
     41,3842	     143,063	77,3	     579,431	159,2
     41,3871	     143,625	77,2	     579,088	159,5
       41,39	     144,127	77,4	     578,792	159,9
      41,393	     144,647	77,2	     578,813	160,2
     41,3959	     144,977	77,3	     578,713	160,9
     41,3988	     145,432	77,5	     578,462	161,0
     41,4018	     146,334	77,5	     578,219	161,3
     41,4047	     146,773	77,6	     578,248	161,7
     41,4076	     147,146	77,6	     578,034	161,9
     41,4106	     147,578	77,7	     577,592	162,5
     41,4135	     148,263	77,8	     577,517	162,7
     41,4164	     148,804	77,7	     577,115	163,0
     41,4194	     149,316	77,8	      576,74	163,2
     41,4223	     149,844	77,8	     576,459	163,4
     41,4252	     150,297	78,0	      576,34	163,8
     41,4282	     150,864	77,8	      576,18	164,0
     41,4311	     151,567	78,0	     575,715	164,3
      41,434	     152,242	77,8	     575,258	164,7
      41,437	     152,523	77,9	       574,9	164,8
     41,4399	     153,169	78,1	     574,651	165,0
     41,4428	     153,791	78,3	     574,162	165,3
     41,4457	     154,096	78,3	     573,913	165,4
     41,4487	     154,629	78,4	     573,526	165,9
     41,4516	     155,673	78,3	     573,181	166,2
     41,4545	     156,456	78,3	     572,911	166,4
     41,4575	     156,675	78,6	     572,685	166,7
     41,4604	     157,328	78,5	     572,239	166,8
     41,4633	      157,97	78,7	     571,659	167,1
     41,4663	     158,616	78,6	     571,348	167,6
     41,4692	     159,302	78,7	     571,104	167,7
     41,4721	     159,868	78,6	     570,734	168,0
     41,4751	     160,424	78,8	     570,377	168,2
      41,478	      161,34	79,1	     569,879	168,2
     41,4809	      161,98	79,2	     569,247	168,4
     41,4839	     162,744	79,2	     569,056	168,6
     41,4868	     163,375	78,9	     568,666	168,8
     41,4897	     163,984	79,0	     568,032	169,3
     41,4927	     164,902	79,3	     567,699	169,6
     41,4956	     165,459	79,2	      567,36	169,6
     41,4985	     165,961	79,2	      567,13	169,8
     41,5015	     166,824	79,6	     566,561	169,9
     41,5044	     167,761	79,8	     566,195	170,3
     41,5073	      168,44	79,6	     565,749	170,7
     41,5103	     168,874	79,7	     565,372	170,9
     41,5132	     169,758	79,8	      565,04	171,1
     41,5161	     170,777	79,9	     564,506	171,2
     41,5191	     171,246	80,0	     564,018	171,1
      41,522	     172,231	80,0	     563,459	171,4
     41,5249	     172,756	80,0	     562,984	171,6
     41,5279	     173,933	80,3	       562,6	171,7
     41,5308	     174,799	80,0	     562,159	172,0
     41,5337	      175,62	80,2	     561,633	172,6
     41,5367	     176,416	80,3	     561,187	172,7
     41,5396	      177,17	80,3	     560,968	172,8
     41,5425	      178,19	80,7	     560,245	172,8
     41,5455	     178,968	80,7	     560,001	173,0
     41,5484	     179,935	80,8	     559,298	173,3
     41,5513	     180,917	81,0	     558,926	173,5
     41,5543	     181,729	81,0	     558,296	173,6
     41,5572	     182,755	80,9	     557,968	173,8
     41,5601	     183,632	81,0	     557,366	174,1
      41,563	     184,722	81,0	     557,046	174,3
      41,566	     185,542	81,2	      556,76	174,4
     41,5689	     186,676	81,3	     556,174	174,5
     41,5718	     187,669	81,7	     555,336	174,7
     41,5748	     188,756	81,7	     554,896	175,0
     41,5777	     190,137	81,9	     554,767	175,3
     41,5806	     191,123	81,8	      554,26	175,3
     41,5836	     192,294	81,8	     553,625	175,6
     41,5865	     193,346	82,0	     553,099	175,8
     41,5894	     194,306	82,0	     552,555	175,9
     41,5924	     195,464	82,4	     552,063	176,1
     41,5953	     196,774	82,5	     551,525	176,2
     41,5982	     198,177	82,5	     551,098	176,4
     41,6012	     199,518	82,6	     550,647	176,7
     41,6041	     200,822	83,0	     550,157	176,7
      41,607	     202,037	83,0	     549,445	176,9
       41,61	     203,435	83,0	     548,825	177,1
     41,6129	     204,852	83,2	     548,415	177,2
     41,6158	     206,364	83,4	     547,953	177,3
     41,6188	      207,73	83,6	     547,462	177,5
     41,6217	     209,222	83,6	     546,829	177,7
     41,6246	     210,718	83,8	     546,301	177,8
     41,6276	     212,695	83,9	     545,866	177,9
     41,6305	     214,114	84,2	     545,305	178,3
     41,6334	     215,728	84,2	     544,749	178,6
     41,6364	     217,458	84,4	     544,347	178,7
     41,6393	     219,079	84,6	     544,096	179,0
     41,6422	     220,939	84,9	     543,439	178,8
     41,6452	     222,965	85,2	     542,778	179,0
     41,6481	     225,146	85,4	     542,192	179,0
      41,651	      227,29	85,7	     541,562	179,2
      41,654	     229,312	85,9	     540,875	179,6
     41,6569	     231,874	86,1	     540,557	179,7
     41,6598	     234,331	86,4	     539,781	180,0
     41,6628	     236,781	86,6	     539,369	180,0
     41,6657	     239,325	86,9	     539,029	180,1
     41,6686	      242,42	87,3	      538,36	180,3
     41,6716	     245,403	87,6	     537,752	180,3
     41,6745	     248,504	88,0	     537,173	180,5
     41,6774	     251,773	88,3	      536,67	180,5
     41,6804	     256,017	89,2	     536,051	180,7
     41,6833	     259,881	89,5	     535,492	180,9
     41,6862	     264,237	90,0	     534,974	181,4
     41,6891	     268,915	90,8	     534,408	181,4
     41,6921	     275,607	91,4	     533,854	181,7
      41,695	     281,605	92,3	     533,153	181,8
     41,6979	     288,569	93,3	     532,758	181,7
     41,7009	     296,594	94,6	     532,221	181,9
     41,7038	     305,892	96,1	     531,642	182,0
     41,7067	     317,168	97,8	     530,983	182,2
     41,7097	     333,665	101,2	     530,523	182,2
     41,7126	     351,255	104,6	     529,594	182,3
     41,7155	     373,841	109,3	     528,969	182,6
     41,7185	     402,048	115,8	     528,754	182,7
     41,7214	     442,381	126,7	      528,33	182,9
     41,7243	      483,21	139,6	     527,736	183,1
     41,7273	     524,184	154,9	     526,784	183,3
     41,7302	     552,143	170,7	     526,558	183,4
     41,7331	     556,767	183,8	     525,747	183,5
     41,7361	     545,261	187,3	     525,131	183,5
      41,739	     533,469	186,5	      524,47	183,7
     41,7419	     528,348	184,5	     524,116	183,7
     41,7449	     527,908	183,3	     523,492	183,8
     41,7478	     528,905	183,3	     522,799	184,0
     41,7507	     529,403	183,7	     522,335	184,4
     41,7537	     529,063	184,0	     521,971	184,3
     41,7566	     528,324	184,3	     521,186	184,5
     41,7595	     527,409	184,6	     520,616	184,6
     41,7625	     526,509	184,4	     519,989	185,0
     41,7654	     525,719	184,5	     519,503	185,1
     41,7683	     524,926	184,6	     518,872	185,3
     41,7713	     524,373	184,8	     518,249	185,4
     41,7742	     523,698	184,9	     517,815	185,3
     41,7771	     522,993	184,9	     517,135	185,3
     41,7801	      522,36	185,2	     516,589	185,7
      41,783	     521,431	185,5	     515,877	185,7
     41,7859	     520,824	185,6	     515,221	185,8
     41,7889	     520,158	185,7	     514,714	186,0
     41,7918	      519,46	185,7	     514,338	186,1
     41,7947	     519,195	185,9	     513,721	186,2
     41,7977	     518,218	185,9	     513,029	186,3
     41,8006	     517,486	186,2	     512,243	186,7
     41,8035	     516,916	186,3	     511,723	186,8
     41,8064	     516,151	186,4	     511,393	186,8
     41,8094	     515,474	186,4	     510,669	186,9
     41,8123	      514,84	186,6	     510,058	187,1
     41,8153	     514,472	186,6	     509,275	187,3
     41,8182	     513,648	186,8	     508,867	187,3
     41,8211	     512,933	187,1	     508,208	187,6
      41,824	      512,13	187,2	     507,724	187,5
      41,827	     511,453	187,2	     506,969	187,6
     41,8299	     510,796	187,3	     506,305	187,8
     41,8328	     510,257	187,5	     505,852	187,9
     41,8358	     509,512	187,8	     505,227	188,0
     41,8387	     509,118	187,9	     504,579	188,2
     41,8416	     508,385	188,0	      503,92	188,4
     41,8446	     507,768	188,2	     503,414	188,3
     41,8475	     506,851	188,0	     502,725	188,5
     41,8504	     506,303	188,1	     502,247	188,6
     41,8534	     505,889	188,4	     501,499	189,0
     41,8563	     505,255	188,5	      500,98	189,0
     41,8592	      504,37	188,5	     500,446	189,2
     41,8622	     503,684	188,7	     499,832	189,3
     41,8651	     502,981	188,7	     499,144	189,5
      41,868	     502,318	188,8	     498,459	189,4
      41,871	     501,675	189,1	     497,744	189,6
     41,8739	     500,965	189,3	     497,442	189,7
     41,8768	     500,271	189,3	     497,038	190,0
     41,8798	     499,769	189,5	     496,587	190,1
     41,8827	     499,104	189,7	     495,397	190,1
     41,8856	     498,357	189,8	     494,948	190,1
     41,8886	     497,695	189,9	     494,099	190,2
     41,8915	     497,132	190,0	      493,69	190,3
     41,8944	     496,657	190,0	     493,024	190,5
     41,8974	     495,826	190,3	     492,436	190,5
     41,9003	     495,191	190,4	     492,019	190,7
     41,9032	     494,472	190,7	     491,524	190,7
     41,9062	     493,855	190,7	     490,607	190,9
     41,9091	     493,243	190,5	     489,849	190,9
      41,912	     492,519	190,8	     489,549	191,1
      41,915	     492,088	191,0	     488,854	191,2
     41,9179	     491,375	191,2	     488,311	191,5
     41,9208	     490,433	191,1	      487,71	191,5
     41,9238	     489,832	191,1	     487,149	191,6
     41,9267	     489,259	191,3	     486,356	191,7
     41,9296	     488,508	191,4	     485,988	192,1
     41,9326	     488,164	191,4	     485,153	192,0
     41,9355	     487,355	191,6	     484,536	192,2
     41,9384	     486,717	191,7	     483,847	192,4
     41,9413	     486,035	191,7	     483,316	192,5
     41,9443	     485,408	191,9	     482,811	192,6
     41,9472	     484,817	192,1	      482,36	192,8
     41,9501	     484,027	192,4	      481,79	192,8
     41,9531	     483,418	192,3	     480,913	192,8
      41,956	     482,587	192,4	     479,946	192,9
     41,9589	     481,936	192,8	     479,592	193,1
     41,9619	     481,459	192,7	     478,889	193,1
     41,9648	      480,77	193,0	     478,199	193,3
     41,9677	     480,159	193,1	     477,773	193,4
     41,9707	     479,474	193,0	     477,296	193,5
     41,9736	     478,927	193,4	     476,464	193,5
     41,9765	     477,904	193,6	     475,921	193,8
     41,9795	     477,333	193,5	     475,307	193,7
     41,9824	     476,798	193,6	      474,59	194,0
     41,9853	     476,121	193,6	     473,968	194,0
     41,9883	      475,61	193,7	     473,479	194,1
     41,9912	     474,852	194,0	     472,899	194,3
     41,9941	     473,963	194,1	      472,32	194,1
     41,9971	     473,331	194,1	     471,414	194,5
          42	     472,797	194,3	      471,09	194,6
     42,0029	     472,254	194,4	     470,447	194,6
     42,0059	     471,453	194,5	     469,587	194,7
     42,0088	     470,789	194,7	     468,903	194,9
     42,0117	     470,294	194,7	     468,209	194,8
     42,0147	       469,7	194,8	     467,654	195,0
     42,0176	     468,886	194,8	     467,329	195,3
     42,0205	     468,099	195,1	     466,576	195,2
     42,0235	     467,514	195,1	     465,756	195,4
     42,0264	     467,008	195,3	     465,383	195,4
     42,0293	     466,178	195,2	     464,664	195,6
     42,0323	     465,581	195,4	     463,925	195,8
     42,0352	     464,791	195,6	      463,37	195,9
     42,0381	     464,331	195,7	     462,821	196,0
     42,0411	     463,635	195,6	     462,128	196,0
      42,044	     463,053	195,7	      461,31	196,2
     42,0469	     462,172	196,0	     460,861	196,2
     42,0499	     461,626	196,2	      460,19	196,4
     42,0528	     460,964	196,4	     459,724	196,4
     42,0557	      460,26	196,2	     459,091	196,4
     42,0587	     459,778	196,4	     458,453	196,7
     42,0616	     458,978	196,6	     457,794	196,7
     42,0645	      458,39	196,6	     457,154	196,8
     42,0674	     457,697	196,8	      456,45	197,0
     42,0704	      456,93	196,8	     455,981	197,0
     42,0733	     456,223	196,8	     455,272	197,1
     42,0762	     455,812	197,1	     454,496	197,3
     42,0792	     455,012	197,2	     453,937	197,2
     42,0821	     454,251	197,1	     453,437	197,6
      42,085	     453,661	197,4	     452,606	197,5
      42,088	     452,954	197,4	     452,142	197,7
     42,0909	     452,389	197,5	     451,447	197,8
     42,0938	     451,848	197,7	     450,586	197,8
     42,0968	     451,042	197,8	     450,083	197,8
     42,0997	     450,324	197,9	     449,418	198,1
     42,1026	     449,597	198,0	     449,008	198,1
     42,1056	     449,201	198,1	      448,15	198,2
     42,1085	     448,482	198,1	     447,551	198,4
     42,1114	     447,615	198,2	     447,092	198,5
     42,1144	     447,018	198,4	     446,334	198,7
     42,1173	     446,373	198,6	     445,752	198,7
     42,1202	     445,789	198,4	     445,184	198,8
     42,1232	     445,063	198,7	     444,626	198,9
     42,1261	     444,457	198,9	     443,804	199,0
      42,129	     443,734	198,9	     443,169	199,1
      42,132	     443,296	199,0	     442,598	199,3
     42,1349	     442,366	199,0	     441,974	199,3
     42,1378	     441,597	199,2	     441,406	199,3
     42,1408	     441,269	199,3	     440,587	199,6
     42,1437	     440,435	199,3	     440,032	199,7
     42,1466	      439,82	199,3	     439,268	199,7
     42,1496	     439,274	199,5	     438,764	199,9
     42,1525	     438,358	199,7	     438,078	199,9
     42,1554	     438,008	199,6	     437,565	-159,8
     42,1584	      437,17	199,7	      436,94	-159,7
     42,1613	      436,57	199,7	     436,481	-159,6
     42,1642	     436,057	200,0	     435,494	-159,5
     42,1672	      435,24	199,9	     434,868	-159,5
     42,1701	     434,557	-159,9	     434,292	-159,2
      42,173	     433,916	-159,9	     433,691	-159,3
      42,176	     433,308	-159,7	     433,151	-159,2
     42,1789	     432,628	-159,6	     432,515	-159,0
     42,1818	     431,889	-159,6	     431,991	-158,8
     42,1847	     431,269	-159,5	     431,326	-158,9
     42,1877	     430,713	-159,4	     430,699	-158,9
     42,1906	     429,974	-159,1	      429,98	-158,7
     42,1936	     429,506	-159,0	     429,309	-158,6
     42,1965	      428,73	-159,1	     428,685	-158,6
     42,1994	     427,849	-158,9	     427,927	-158,6
     42,2023	     427,409	-158,7	     427,358	-158,3
     42,2053	     426,855	-158,5	      427,03	-158,2
     42,2082	     426,255	-158,4	     426,349	-158,2
     42,2111	     425,241	-158,5	     425,719	-158,3
     42,2141	     424,844	-158,2	     424,891	-158,1
      42,217	     424,466	-158,1	     424,051	-158,0
     42,2199	     423,679	-158,1	     423,549	-157,8
     42,2229	     422,967	-158,1	     422,995	-157,9
     42,2258	     422,263	-157,9	      422,48	-157,6
     42,2287	     421,494	-157,9	     421,975	-157,6
     42,2317	     420,961	-157,9	     421,138	-157,6
     42,2346	     420,356	-157,7	     420,399	-157,4
     42,2375	     419,888	-157,7	     419,723	-157,3
     42,2405	         419	-157,5	     419,183	-157,1
     42,2434	     418,101	-157,4	     418,687	-157,0
     42,2463	     417,653	-157,5	     417,959	-157,0
     42,2493	     416,948	-157,2	      417,36	-156,7
     42,2522	     416,376	-157,3	     416,973	-156,6
     42,2551	     415,734	-157,0	     416,174	-156,5
     42,2581	     414,872	-156,8	      415,54	-156,5
      42,261	     414,562	-156,8	     414,793	-156,4
     42,2639	     413,676	-156,8	     414,313	-156,1
     42,2669	     413,012	-156,7	     413,757	-156,2
     42,2698	     412,686	-156,4	     412,997	-156,2
     42,2727	     411,711	-156,4	     412,369	-156,2
     42,2757	     410,883	-156,3	     411,624	-156,0
     42,2786	     410,225	-156,2	     411,089	-155,9
     42,2815	     409,916	-156,1	     410,363	-155,9
     42,2845	     409,166	-156,1	     409,779	-155,7
     42,2874	     408,546	-156,2	     409,357	-155,8
     42,2903	     407,814	-156,1	     408,497	-155,7
     42,2933	     407,172	-155,8	     407,964	-155,5
     42,2962	     406,578	-155,7	     407,307	-155,4
     42,2991	     405,917	-155,7	     406,612	-155,3
     42,3021	      405,19	-155,6	     405,959	-155,1
      42,305	      404,73	-155,6	     405,246	-155,1
     42,3079	      403,93	-155,4	     404,854	-154,9
     42,3109	     403,374	-155,3	     404,123	-154,7
     42,3138	     402,712	-155,1	     403,722	-154,7
     42,3167	     401,779	-155,0	     402,937	-154,8
     42,3196	     401,342	-154,9	     402,087	-154,4
     42,3226	      400,77	-154,7	     401,702	-154,4
     42,3255	     399,998	-154,7	     401,183	-154,6
     42,3284	     399,094	-154,7	     400,524	-154,4
     42,3314	     398,861	-154,7	     399,679	-154,2
     42,3343	     398,235	-154,7	     399,077	-154,2
     42,3372	     397,501	-154,6	     398,388	-154,3
     42,3402	      396,82	-154,4	     397,921	-154,1
     42,3431	     396,011	-154,4	     397,427	-153,9
      42,346	     395,464	-154,5	     396,801	-154,0
      42,349	     394,862	-154,1	     395,807	-153,7
     42,3519	     394,461	-153,9	     395,364	-153,6
     42,3548	     393,557	-153,8	     394,764	-153,4
     42,3578	     392,827	-153,7	      394,35	-153,4
     42,3607	     392,556	-153,7	     393,435	-153,2
     42,3636	     391,768	-153,7	     392,599	-153,2
     42,3666	     391,064	-153,7	     392,128	-153,4
     42,3695	     390,188	-153,4	     391,441	-153,0
     42,3724	     389,642	-153,5	     390,946	-153,1
     42,3754	     388,906	-153,5	     390,187	-153,1
     42,3783	     388,233	-153,4	     389,508	-152,9
     42,3812	     387,793	-153,5	     388,937	-152,9
     42,3842	     387,107	-153,2	     388,352	-152,8
     42,3871	     386,591	-152,9	     387,771	-152,7
       42,39	     385,841	-152,7	     387,094	-152,3
      42,393	     385,123	-152,7	     386,758	-152,3
     42,3959	     384,552	-152,6	      385,92	-152,2
     42,3988	     383,876	-152,6	     385,032	-152,1
     42,4018	       383,4	-152,6	     384,426	-152,1
     42,4047	     382,675	-152,3	     384,102	-151,9
     42,4076	     381,802	-152,4	     383,502	-152,2
     42,4106	     381,135	-152,4	     382,813	-151,9
     42,4135	     380,753	-152,2	     382,107	-151,9
     42,4164	     380,091	-152,0	     381,476	-151,8
     42,4194	     379,325	-152,1	     380,956	-151,8
     42,4223	     378,878	-151,9	     380,212	-151,5
     42,4252	     378,228	-151,7	     379,818	-151,4
     42,4282	     377,795	-151,6	     379,051	-151,4
     42,4311	     376,842	-151,5	     378,249	-151,2
      42,434	     376,141	-151,7	      377,95	-151,2
      42,437	     375,391	-151,5	       377,2	-151,0
     42,4399	     374,906	-151,6	     376,679	-151,2
     42,4428	     374,313	-151,4	     375,813	-151,0
     42,4457	     373,353	-151,4	     375,446	-151,0
     42,4487	     373,021	-151,4	     374,715	-150,8
     42,4516	      372,22	-151,0	      374,16	-150,7
     42,4545	     371,684	-150,9	     373,454	-150,6
     42,4575	     371,135	-150,9	     372,686	-150,5
     42,4604	     370,637	-150,7	     372,219	-150,3
     42,4633	     369,606	-150,7	     371,643	-150,1
     42,4663	     369,347	-150,8	     371,104	-150,2
     42,4692	      368,65	-150,5	     370,335	-150,1
     42,4721	     368,043	-150,5	      369,73	-150,3
     42,4751	     367,309	-150,6	     368,954	-150,1
      42,478	     366,717	-150,5	     368,616	-150,0
     42,4809	     366,159	-150,2	     367,931	-150,1
     42,4839	     365,264	-150,0	     367,294	-149,8
     42,4868	     364,843	-150,0	     366,941	-149,7
     42,4897	     364,143	-149,9	     366,102	-149,5
     42,4927	     363,722	-150,0	     365,467	-149,4
     42,4956	     362,843	-149,7	     364,744	-149,3
     42,4985	      362,27	-149,9	     364,388	-149,4
     42,5015	     361,533	-149,8	     363,471	-149,5
     42,5044	     361,096	-149,6	     363,042	-149,2
     42,5073	     360,442	-149,3	     362,414	-149,4
     42,5103	      359,66	-149,4	     361,838	-149,0
     42,5132	     359,315	-149,1	     361,146	-149,0
     42,5161	     358,455	-149,2	      360,29	-148,8
     42,5191	      357,73	-149,1	     359,875	-148,7
      42,522	     357,141	-149,1	     359,305	-148,7
     42,5249	     356,641	-149,2	     358,687	-148,7
     42,5279	     355,956	-149,0	     358,146	-148,7
     42,5308	     355,427	-148,9	     357,299	-148,4
     42,5337	     354,653	-148,9	     356,674	-148,5
     42,5367	     353,974	-148,6	     356,232	-148,4
     42,5396	     353,329	-148,5	     355,501	-148,2
     42,5425	     353,053	-148,8	     354,949	-148,0
     42,5455	     352,568	-148,4	     354,297	-148,1
     42,5484	     351,559	-148,4	     353,873	-147,8
     42,5513	         351	-148,5	      353,25	-148,0
     42,5543	     350,403	-148,4	     352,644	-147,9
     42,5572	     349,677	-148,1	     351,885	-147,9
     42,5601	     348,898	-148,1	     351,175	-147,7
      42,563	     348,544	-147,9	      350,73	-147,6
      42,566	     347,917	-147,9	     350,114	-147,3
     42,5689	     347,258	-147,8	     349,586	-147,4
     42,5718	     346,495	-147,8	     348,858	-147,1
     42,5748	      346,02	-147,9	     348,413	-147,3
     42,5777	      345,44	-147,6	     347,593	-147,3
     42,5806	     344,912	-147,4	      346,88	-147,3
     42,5836	     344,072	-147,3	     346,437	-147,0
     42,5865	     343,566	-147,3	     346,168	-146,9
     42,5894	     342,792	-147,2	     345,384	-146,9
     42,5924	     342,258	-147,4	     344,587	-146,9
     42,5953	     341,702	-147,2	     343,832	-146,8
     42,5982	     340,963	-147,2	     343,554	-146,5
     42,6012	     340,342	-147,1	     342,866	-146,7
     42,6041	     339,762	-146,8	     342,134	-146,6
      42,607	     339,141	-146,7	     341,607	-146,4
       42,61	     338,454	-146,7	     341,184	-146,1
     42,6129	     337,734	-146,6	     340,474	-146,2
     42,6158	     337,156	-146,7	     339,915	-146,1
     42,6188	     336,856	-146,6	     339,349	-146,2
     42,6217	         336	-146,5	     338,614	-146,2
     42,6246	     335,366	-146,4	     337,981	-146,0
     42,6276	     334,861	-146,1	       337,3	-145,9
     42,6305	     334,351	-146,1	     336,644	-145,8
     42,6334	      333,49	-146,0	     336,278	-145,5
     42,6364	     333,052	-146,1	     335,748	-145,6
     42,6393	     332,378	-146,0	     335,001	-145,4
     42,6422	     331,709	-146,0	     334,563	-145,5
     42,6452	     331,211	-145,7	      333,83	-145,4
     42,6481	     330,806	-145,7	     333,418	-145,3
      42,651	     329,707	-145,6	     332,824	-145,3
      42,654	     329,227	-145,6	     331,915	-145,2
     42,6569	      328,62	-145,7	     331,218	-144,7
     42,6598	     328,119	-145,5	     331,027	-145,0
     42,6628	     327,379	-145,4	     330,462	-145,0
     42,6657	      326,87	-145,4	     329,705	-145,1
     42,6686	     326,188	-145,1	     328,776	-144,9
     42,6716	     325,682	-145,2	     328,503	-144,7
     42,6745	     325,096	-145,2	     328,139	-144,4
     42,6774	     324,532	-145,1	     327,568	-144,7
     42,6804	     323,803	-145,0	     326,575	-144,4
     42,6833	     323,177	-144,8	     326,115	-144,6
     42,6862	     322,596	-144,7	     325,489	-144,5
     42,6891	     322,152	-144,7	     325,013	-144,4
     42,6921	     321,164	-144,6	     324,466	-144,1
      42,695	     320,717	-144,7	     323,826	-144,1
     42,6979	     320,308	-144,7	     323,093	-143,9
     42,7009	     319,675	-144,5	     322,655	-144,1
     42,7038	     318,588	-144,3	     321,947	-144,0
     42,7067	     318,335	-144,0	      321,53	-143,8
     42,7097	     317,984	-144,4	     320,801	-143,8
     42,7126	     317,323	-144,2	     320,224	-143,5
     42,7155	     316,421	-144,0	     319,518	-143,6
     42,7185	     315,833	-143,9	     318,892	-143,7
     42,7214	     315,397	-143,8	     318,337	-143,5
     42,7243	     314,722	-143,9	     317,711	-143,5
     42,7273	     314,277	-143,7	      317,23	-143,3
     42,7302	     313,672	-143,6	     316,594	-143,1
     42,7331	     312,928	-143,6	     316,054	-143,2
     42,7361	     312,306	-143,4	     315,642	-143,2
      42,739	     311,891	-143,4	      315,01	-143,1
     42,7419	     311,261	-143,2	     314,138	-142,9
     42,7449	     310,554	-143,4	     313,925	-142,8
     42,7478	     309,789	-143,5	     313,029	-142,7
     42,7507	     309,502	-143,2	      312,73	-142,5
     42,7537	     308,897	-143,2	     312,175	-142,8
     42,7566	     308,359	-143,0	      311,49	-142,8
     42,7595	     307,667	-142,9	     310,611	-142,7
     42,7625	     307,158	-142,8	      310,16	-142,4
     42,7654	     306,244	-142,9	     309,588	-142,3
     42,7683	     305,842	-142,8	     309,141	-142,4
     42,7713	     305,322	-142,6	     308,542	-142,4
     42,7742	     304,697	-142,5	     307,992	-142,3
     42,7771	     304,117	-142,5	     307,163	-142,2
     42,7801	     303,438	-142,5	     306,863	-142,0
      42,783	     302,865	-142,6	     306,285	-141,9
     42,7859	     302,459	-142,4	     305,719	-142,1
     42,7889	      301,95	-142,2	     305,119	-141,9
     42,7918	      301,25	-142,1	     304,598	-142,0
     42,7947	     300,694	-142,3	     303,943	-141,6
     42,7977	     300,152	-142,1	     303,311	-141,6
     42,8006	     299,473	-142,2	     302,803	-141,4
     42,8035	     298,842	-141,9	     302,244	-141,7
     42,8064	     298,382	-141,7	     301,685	-141,6
     42,8094	     297,694	-141,9	     301,036	-141,3
     42,8123	     297,414	-141,8	     300,613	-141,2
     42,8153	     296,322	-141,7	      299,97	-141,2
     42,8182	     295,955	-141,7	     299,525	-141,3
     42,8211	     295,419	-141,5	     298,682	-141,3
      42,824	     294,993	-141,4	     297,994	-141,1
      42,827	      294,43	-141,5	     297,776	-140,8
     42,8299	     293,741	-141,3	     297,149	-140,8
     42,8328	     292,896	-141,4	     296,596	-140,7
     42,8358	     292,492	-141,1	     295,964	-140,9
     42,8387	     292,454	-141,2	     295,482	-140,8
     42,8416	     291,622	-141,2	     294,699	-140,8
     42,8446	     290,738	-141,0	     294,306	-140,5
     42,8475	      290,14	-141,0	     293,598	-140,4
     42,8504	     289,954	-140,7	     293,025	-140,6
     42,8534	     289,247	-140,5	     292,501	-140,4
     42,8563	     288,711	-140,6	     292,099	-140,3
     42,8592	     287,983	-140,8	     291,414	-140,2
     42,8622	     287,387	-140,6	      290,87	-140,3
     42,8651	     287,156	-140,5	     290,132	-140,1
      42,868	      286,41	-140,4	     289,586	-140,2
      42,871	     285,842	-140,5	     289,228	-140,0
     42,8739	     285,176	-140,4	     288,607	-139,8
     42,8768	     284,914	-140,2	      288,29	-140,0
     42,8798	     284,407	-140,0	     287,376	-139,8
     42,8827	     283,376	-139,9	     286,842	-139,9
     42,8856	     282,974	-140,1	     286,378	-139,6
     42,8886	     282,481	-140,0	     285,554	-139,6
     42,8915	     281,892	-140,0	     284,946	-139,3
     42,8944	     281,433	-139,9	     284,582	-139,6
     42,8974	     281,021	-139,7	     284,093	-139,7
     42,9003	     280,236	-139,7	     283,348	-139,4
     42,9032	     279,862	-139,7	     283,034	-139,2
     42,9062	      279,18	-139,6	     282,297	-139,1
     42,9091	     278,534	-139,4	     281,764	-139,4
      42,912	     277,974	-139,3	      281,17	-139,1
      42,915	     277,589	-139,4	     280,652	-139,0
     42,9179	     277,222	-139,5	     280,455	-138,9
     42,9208	     276,508	-139,2	     279,597	-139,0
     42,9238	     276,079	-139,1	     278,904	-139,0
     42,9267	     275,466	-139,0	     278,325	-138,9
     42,9296	     275,035	-139,2	     278,042	-138,6
     42,9326	     274,383	-139,1	     277,403	-138,6
     42,9355	      274,06	-138,7	     276,823	-138,9
     42,9384	     273,257	-138,8	     275,906	-138,5
     42,9413	     272,777	-138,7	      275,71	-138,6
     42,9443	     272,341	-139,0	     275,419	-138,4
     42,9472	      271,59	-138,6	     274,599	-138,6
     42,9501	     271,269	-138,8	     273,983	-138,6
     42,9531	      270,54	-138,4	     273,274	-138,5
      42,956	     269,903	-138,5	     272,781	-138,3
     42,9589	     269,549	-138,6	     272,574	-137,9
     42,9619	     269,043	-138,2	     271,817	-138,3
     42,9648	     268,516	-138,3	     271,251	-138,2
     42,9677	      267,85	-138,3	     270,667	-138,0
     42,9707	     267,449	-138,4	     270,449	-137,9
     42,9736	     266,807	-138,1	     269,598	-137,9
     42,9765	     266,246	-137,9	     269,027	-137,9
     42,9795	     265,619	-137,9	     268,709	-137,8
     42,9824	     265,275	-138,0	      268,16	-137,7
     42,9853	     264,748	-138,1	     267,467	-137,6
     42,9883	     264,208	-137,7	     266,785	-137,6
     42,9912	     263,778	-137,7	     266,417	-137,6
     42,9941	     263,057	-137,7	     265,672	-137,4
     42,9971	     262,552	-137,7	     265,396	-137,3
          43	     262,042	-137,7	     264,835	-137,4
     43,0029	     261,566	-137,4	     264,243	-137,2
     43,0059	     261,079	-137,4	     263,717	-137,4
     43,0088	     260,403	-137,5	     262,995	-137,2
     43,0117	     260,012	-137,5	     262,596	-137,1
     43,0147	     259,128	-137,3	     262,178	-137,1
     43,0176	      258,83	-137,2	     261,584	-137,2
     43,0205	     258,499	-137,4	       261,1	-137,0
     43,0235	     257,817	-137,1	     260,391	-136,8
     43,0264	     257,111	-137,2	     260,012	-137,1
     43,0293	     256,714	-136,9	     259,381	-136,8
     43,0323	     256,311	-136,9	     258,663	-136,7
     43,0352	     255,764	-137,0	     258,287	-136,4
     43,0381	     255,135	-136,9	     257,838	-136,6
     43,0411	     254,817	-136,8	     257,436	-136,7
      43,044	     254,177	-136,8	     256,838	-136,4
     43,0469	     253,641	-136,7	     256,179	-136,5
     43,0499	     253,036	-136,8	     255,624	-136,6
     43,0528	     252,615	-136,5	     254,904	-136,4
     43,0557	      252,09	-136,6	     254,698	-136,2
     43,0587	     251,519	-136,6	     254,058	-136,0
     43,0616	     251,225	-136,3	     253,553	-136,3
     43,0645	     250,578	-136,2	     253,079	-136,2
     43,0674	     249,962	-136,3	     252,332	-136,1
     43,0704	     249,479	-136,3	       251,9	-136,1
     43,0733	     249,005	-136,1	     251,417	-135,9
     43,0762	     248,562	-136,2	     251,003	-136,0
     43,0792	     247,901	-136,2	     250,641	-135,8
     43,0821	     247,533	-136,1	     249,841	-135,7
      43,085	     247,083	-135,9	     249,297	-135,9
      43,088	     246,293	-135,8	     248,879	-135,7
     43,0909	     246,083	-135,9	     248,197	-135,8
     43,0938	     245,453	-135,9	     247,847	-135,5
     43,0968	     244,924	-135,6	     247,272	-135,6
     43,0997	     244,498	-135,7	     246,917	-135,6
     43,1026	     243,803	-135,6	     246,053	-135,4
     43,1056	     243,502	-135,7	     245,763	-135,4
     43,1085	     242,941	-135,5	     245,304	-135,5
     43,1114	     242,306	-135,4	     244,811	-135,2
     43,1144	     241,966	-135,7	     244,189	-135,3
     43,1173	     241,439	-135,5	     243,457	-135,1
     43,1202	     240,854	-135,1	     243,001	-135,2
     43,1232	     240,507	-135,4	     242,909	-135,1
     43,1261	     240,024	-135,2	     242,189	-134,9
      43,129	      239,45	-135,2	      241,62	-135,1
      43,132	     239,003	-135,1	      241,22	-135,1
     43,1349	     238,487	-135,1	     240,607	-134,9
     43,1378	     237,852	-135,0	     240,193	-134,9
     43,1408	     237,406	-135,1	     239,542	-134,8
     43,1437	     237,109	-134,7	     238,938	-134,9
     43,1466	     236,615	-135,0	     238,667	-134,6
     43,1496	     236,002	-134,8	      238,06	-134,6
     43,1525	     235,664	-134,8	     237,584	-134,7
     43,1554	     234,806	-134,6	     236,932	-134,7
     43,1584	     234,708	-134,7	     236,351	-134,5
     43,1613	     234,302	-134,6	     235,963	-134,7
     43,1642	     233,571	-134,4	      235,71	-134,3
     43,1672	     233,419	-134,4	     235,128	-134,4
     43,1701	       232,7	-134,6	     234,523	-134,2
      43,173	     232,118	-134,3	     234,002	-134,2
      43,176	     231,829	-134,3	     233,608	-134,2
     43,1789	     231,213	-134,4	     233,431	-134,2
     43,1818	     230,771	-134,2	     232,388	-134,0
     43,1847	     230,415	-134,0	     231,983	-134,2
     43,1877	     229,949	-134,2	      231,64	-133,9
     43,1906	     229,381	-134,2	      230,97	-133,9
     43,1936	     228,886	-134,1	     230,659	-134,2
     43,1965	      228,31	-134,0	     230,273	-134,0
     43,1994	     228,213	-134,1	     229,635	-133,9
     43,2023	     227,426	-134,0	     229,222	-133,9
     43,2053	     227,116	-133,7	     228,614	-133,9
     43,2082	     226,613	-133,7	     228,191	-133,7
     43,2111	     225,981	-133,9	     227,734	-133,5
     43,2141	     225,594	-133,6	     227,331	-133,7
      43,217	     225,285	-133,6	     226,858	-133,7
     43,2199	     224,533	-133,6	      226,19	-133,3
     43,2229	     224,082	-133,7	     225,817	-133,6
     43,2258	     223,825	-133,6	     225,233	-133,6
     43,2287	     223,175	-133,2	     224,897	-133,1
     43,2317	     222,743	-133,6	     224,381	-133,2
     43,2346	     222,266	-133,5	     224,075	-133,6
     43,2375	     221,894	-133,2	     223,248	-133,3
     43,2405	     221,286	-133,3	     222,698	-133,1
     43,2434	     220,899	-133,3	     222,621	-133,3
     43,2463	     220,498	-132,9	     222,069	-133,2
     43,2493	     219,908	-133,2	     221,573	-133,2
     43,2522	     219,526	-133,2	     221,054	-132,9
     43,2551	     219,219	-133,1	     220,575	-133,2
     43,2581	     218,692	-132,8	     220,225	-132,9
      43,261	     217,995	-133,0	     219,824	-132,7
     43,2639	     217,684	-132,9	     219,129	-133,0
     43,2669	     217,362	-132,8	      218,81	-132,9
     43,2698	      216,75	-132,9	     218,379	-132,6
     43,2727	     216,307	-132,8	     217,837	-132,9
     43,2757	     215,909	-132,8	     217,356	-132,9
     43,2786	     215,308	-132,5	     216,784	-132,4
     43,2815	     214,852	-132,8	      216,39	-132,6
     43,2845	     214,631	-132,6	     215,718	-132,5
     43,2874	     213,993	-132,7	     215,374	-132,5
     43,2903	      213,51	-132,5	     215,197	-132,3
     43,2933	     213,083	-132,5	     214,841	-132,7
     43,2962	     212,683	-132,3	     213,941	-132,2
     43,2991	      212,41	-132,5	     213,854	-132,3
     43,3021	     211,862	-132,3	     213,309	-132,3
      43,305	     211,185	-132,1	     212,463	-132,5
     43,3079	     211,051	-132,4	     212,311	-132,1
     43,3109	     210,666	-132,4	     212,067	-132,4
     43,3138	     210,071	-132,0	     211,234	-132,3
     43,3167	     209,624	-132,1	     210,905	-132,1
     43,3196	     208,902	-132,2	     210,602	-132,1
     43,3226	     208,624	-132,0	     209,887	-132,0
     43,3255	     208,414	-132,1	     209,557	-131,9
     43,3284	     207,901	-132,2	      209,15	-131,7
     43,3314	     207,294	-132,0	      208,56	-132,0
     43,3343	     207,104	-131,9	      208,29	-132,0
     43,3372	     206,521	-132,0	     207,861	-131,8
     43,3402	     206,118	-131,6	     207,209	-131,9
     43,3431	     205,579	-131,6	     206,754	-131,7
      43,346	     205,131	-131,8	     206,472	-131,6
      43,349	     204,762	-131,7	     205,887	-131,7
     43,3519	      204,54	-131,6	     205,665	-131,9
     43,3548	     203,727	-131,6	     205,192	-131,5
     43,3578	     203,419	-131,6	     204,698	-131,6
     43,3607	      203,27	-131,5	     204,426	-131,6
     43,3636	     202,649	-131,7	     203,729	-131,3
     43,3666	     202,199	-131,3	     203,325	-131,3
     43,3695	     201,875	-131,4	     203,097	-131,5
     43,3724	     201,329	-131,5	     202,731	-131,3
     43,3754	     200,984	-131,2	     202,012	-131,3
     43,3783	     200,466	-131,2	     201,635	-131,4
     43,3812	     199,948	-131,4	     201,359	-131,1
     43,3842	     199,456	-131,3	      200,82	-131,3
     43,3871	      199,32	-131,0	     200,269	-131,3
       43,39	     198,851	-131,2	     200,055	-131,1
      43,393	     198,722	-131,1	      199,36	-130,9
     43,3959	     198,033	-130,9	     199,083	-131,2
     43,3988	     197,489	-131,1	     198,814	-130,9
     43,4018	     196,965	-131,0	     198,268	-131,0
     43,4047	     196,783	-130,9	     197,798	-131,1
     43,4076	     196,284	-130,9	     197,518	-131,0
     43,4106	     195,561	-131,0	     197,009	-130,9
     43,4135	     195,427	-130,8	     196,597	-130,8
     43,4164	     194,968	-130,9	     196,206	-130,7
     43,4194	     194,519	-130,8	      195,88	-130,6
     43,4223	     194,333	-130,6	     195,394	-130,7
     43,4252	     193,885	-130,8	      194,93	-130,5
     43,4282	     193,416	-130,7	      194,64	-130,8
     43,4311	      192,91	-130,5	     193,973	-130,7
      43,434	     192,513	-130,7	     193,621	-130,6
      43,437	     192,209	-130,6	     193,394	-130,7
     43,4399	     191,624	-130,4	     192,895	-130,5
     43,4428	     191,358	-130,6	     192,615	-130,5
     43,4457	     191,267	-130,5	     192,134	-130,5
     43,4487	      190,51	-130,3	     191,595	-130,4
     43,4516	     190,126	-130,5	     191,213	-130,2
     43,4545	     189,866	-130,4	     190,811	-130,6
     43,4575	      189,32	-130,3	     190,481	-130,4
     43,4604	     188,957	-130,3	     190,123	-130,1
     43,4633	     188,632	-130,5	     189,647	-130,4
     43,4663	     188,219	-130,0	     189,305	-130,1
     43,4692	     187,636	-130,2	     188,725	-130,0
     43,4721	     187,481	-130,1	     188,404	-130,3
     43,4751	     187,163	-130,2	     188,214	-130,1
      43,478	     186,529	-130,0	     187,981	-129,9
     43,4809	     186,176	-129,8	     187,221	-130,1
     43,4839	     185,828	-130,2	     186,877	-130,1
     43,4868	     185,449	-130,0	      186,43	-129,8
     43,4897	     185,272	-129,7	     186,073	-129,9
     43,4927	     184,671	-129,9	     185,836	-130,1
     43,4956	     184,388	-129,9	     185,296	-129,9
     43,4985	     183,896	-129,7	     184,813	-129,8
     43,5015	     183,573	-129,8	     184,558	-129,6
     43,5044	     183,108	-129,9	     184,282	-130,0
     43,5073	     182,718	-129,7	     183,698	-129,8
     43,5103	      182,35	-129,8	     183,281	-129,5
     43,5132	     182,183	-129,6	     182,987	-129,9
     43,5161	     181,812	-129,8	     182,554	-129,6
     43,5191	     181,287	-129,6	      182,07	-129,3
      43,522	     180,736	-129,4	      181,87	-129,7
     43,5249	      180,47	-129,6	      181,59	-129,6
     43,5279	     180,134	-129,5	     181,089	-129,5
     43,5308	     179,753	-129,3	     180,522	-129,5
     43,5337	     179,281	-129,6	     180,256	-129,5
     43,5367	      179,11	-129,5	     179,904	-129,2
     43,5396	     178,555	-129,3	     179,423	-129,6
     43,5425	     178,286	-129,5	     179,031	-129,2
     43,5455	     177,842	-129,3	     178,874	-129,4
     43,5484	      177,41	-129,3	     178,489	-129,3
     43,5513	     177,009	-129,2	     177,807	-129,1
     43,5543	     176,788	-129,2	     177,478	-129,4
     43,5572	      176,49	-129,1	     177,441	-129,0
     43,5601	     175,723	-129,1	     176,948	-129,3
      43,563	     175,727	-129,1	     176,354	-129,2
      43,566	     175,347	-129,2	     176,312	-129,0
     43,5689	     174,824	-129,1	     175,873	-129,2
     43,5718	     174,788	-128,8	      175,34	-129,0
     43,5748	     174,225	-129,1	     175,116	-128,9
     43,5777	     173,877	-128,9	     174,682	-129,1
     43,5806	     173,384	-129,0	     174,253	-128,8
     43,5836	     173,167	-129,1	     173,807	-128,8
     43,5865	     172,878	-128,9	     173,736	-129,0
     43,5894	     172,351	-128,9	     173,356	-128,9
     43,5924	     171,767	-128,7	     172,716	-128,7
     43,5953	     171,771	-128,8	     172,626	-128,8
     43,5982	      171,29	-129,0	     171,997	-128,8
     43,6012	     170,996	-128,5	     171,811	-128,8
     43,6041	     170,493	-128,7	     171,459	-128,7
      43,607	     170,432	-128,7	     170,989	-128,7
       43,61	     170,123	-128,8	     170,729	-128,7
     43,6129	      169,46	-128,6	     170,428	-128,5
     43,6158	     169,216	-128,4	     169,807	-128,6
     43,6188	      168,85	-128,7	      169,84	-128,7
     43,6217	     168,756	-128,6	     169,263	-128,5
     43,6246	     168,022	-128,3	     169,102	-128,5
     43,6276	     167,874	-128,6	     168,501	-128,4
     43,6305	      167,73	-128,4	     168,191	-128,5
     43,6334	     167,213	-128,5	     167,997	-128,3
     43,6364	     166,845	-128,5	     167,546	-128,3
     43,6393	     166,742	-128,2	     167,101	-128,4
     43,6422	      166,02	-128,5	     166,845	-128,4
     43,6452	     165,841	-128,3	      166,65	-128,1
     43,6481	     165,561	-128,3	     166,131	-128,3
      43,651	       165,2	-128,2	     165,549	-128,2
      43,654	     164,697	-128,2	     165,459	-128,3
     43,6569	     164,281	-128,3	     165,489	-128,1
     43,6598	     164,349	-128,0	     164,684	-128,2
     43,6628	     163,919	-128,1	     164,321	-128,2
     43,6657	     163,476	-128,3	      164,31	-128,0
     43,6686	     163,237	-128,0	     163,954	-128,2
     43,6716	     162,943	-128,0	     163,415	-128,0
     43,6745	     162,635	-127,9	     163,143	-128,1
     43,6774	     162,281	-128,0	     162,817	-128,1
     43,6804	     161,669	-128,0	     162,602	-127,9
     43,6833	     161,432	-127,8	     162,003	-128,0
     43,6862	     161,319	-128,0	     161,743	-127,9
     43,6891	      160,91	-127,9	     161,584	-128,1
     43,6921	     160,464	-127,8	     161,248	-127,9
      43,695	     160,205	-128,0	     160,913	-127,8
     43,6979	     160,009	-127,7	     160,391	-128,0
     43,7009	     159,746	-127,8	     160,181	-127,8
     43,7038	     159,149	-127,8	     159,677	-127,8
     43,7067	     158,926	-127,7	     159,502	-127,7
     43,7097	     158,783	-127,7	     159,083	-127,8
     43,7126	     158,435	-127,7	     158,716	-127,9
     43,7155	     158,071	-127,7	     158,511	-127,6
     43,7185	     157,728	-127,5	     158,103	-127,6
     43,7214	     157,383	-127,5	     157,732	-127,5
     43,7243	     157,023	-127,6	       157,5	-127,7
     43,7273	     156,849	-127,4	      157,24	-127,7
     43,7302	     156,462	-127,6	     156,923	-127,2
     43,7331	     155,976	-127,3	     156,517	-127,6
     43,7361	     155,825	-127,5	     156,276	-127,4
      43,739	     155,473	-127,6	     156,123	-127,6
     43,7419	     155,337	-127,4	       155,5	-127,6
     43,7449	     154,875	-127,4	     155,386	-127,3
     43,7478	     154,557	-127,2	     155,162	-127,6
     43,7507	       154,4	-127,5	     154,511	-127,2
     43,7537	     153,941	-127,3	     154,495	-127,2
     43,7566	     153,475	-127,3	     154,104	-127,4
     43,7595	     153,316	-127,1	     153,656	-127,3
     43,7625	      153,14	-127,1	     153,515	-127,4
     43,7654	     152,759	-127,3	      153,37	-127,4
     43,7683	     152,452	-126,9	     152,928	-127,2
     43,7713	     152,014	-127,2	     152,439	-127,2
     43,7742	     151,812	-126,9	     152,203	-127,2
     43,7771	      151,65	-127,1	     152,084	-127,2
     43,7801	     151,008	-127,3	     151,797	-127,2
      43,783	     150,804	-127,0	     151,201	-127,2
     43,7859	     150,668	-127,0	     150,874	-127,1
     43,7889	     150,227	-126,9	     150,765	-127,2
     43,7918	     150,083	-127,1	     150,651	-127,1
     43,7947	     149,695	-126,9	     150,083	-126,8
     43,7977	     149,211	-127,0	      149,75	-127,1
     43,8006	     149,081	-126,8	     149,416	-127,0
     43,8035	     149,038	-126,9	     149,522	-127,0
     43,8064	     148,438	-127,0	     148,894	-126,9
     43,8094	     148,097	-126,6	     148,503	-126,9
     43,8123	     147,958	-126,9	     148,466	-126,8
     43,8153	     148,044	-126,7	         148	-127,0
     43,8182	     147,315	-126,8	     147,967	-126,9
     43,8211	     146,874	-126,9	     147,537	-126,9
      43,824	     146,701	-126,7	     146,903	-126,9
      43,827	     146,724	-126,7	     146,994	-126,8
     43,8299	     146,049	-126,6	     146,766	-126,9
     43,8328	     145,837	-126,9	     146,399	-126,7
     43,8358	     145,729	-126,5	     146,054	-126,7
     43,8387	      145,18	-126,7	     145,743	-126,7
     43,8416	     145,169	-126,6	     145,522	-126,8
     43,8446	      145,04	-126,7	     145,137	-126,7
     43,8475	     144,523	-126,6	      144,82	-126,5
     43,8504	     144,168	-126,7	     144,487	-126,6
     43,8534	     143,836	-126,6	     144,423	-126,5
     43,8563	      143,84	-126,5	     144,161	-126,7
     43,8592	     143,477	-126,6	     143,832	-126,5
     43,8622	     143,205	-126,4	     143,477	-126,5
     43,8651	     142,932	-126,5	     143,266	-126,5
      43,868	     142,643	-126,2	     142,921	-126,6
      43,871	     142,279	-126,5	     142,612	-126,6
     43,8739	     142,167	-126,3	       142,6	-126,5
     43,8768	     141,679	-126,4	     141,997	-126,5
     43,8798	     141,423	-126,4	     141,707	-126,2
     43,8827	      141,18	-126,3	     141,435	-126,6
     43,8856	     140,991	-126,2	      141,31	-126,4
     43,8886	     140,732	-126,3	     141,014	-126,5
     43,8915	     140,376	-126,4	     140,772	-126,4
     43,8944	     140,034	-126,1	     140,299	-126,2
     43,8974	     139,756	-126,3	      140,06	-126,3
     43,9003	     139,601	-126,1	     139,927	-126,3
     43,9032	     139,384	-126,3	     139,649	-126,3
     43,9062	     139,014	-126,1	     139,349	-126,1
     43,9091	     138,832	-126,2	     138,966	-126,2
      43,912	     138,667	-125,9	     138,854	-126,0
      43,915	     138,101	-126,2	     138,462	-126,4
     43,9179	     138,083	-126,0	     138,311	-126,1
     43,9208	       137,9	-126,0	     138,066	-126,1
     43,9238	     137,374	-126,1	     137,926	-126,0
     43,9267	     137,132	-126,1	     137,417	-126,2
     43,9296	     136,869	-126,0	     137,181	-126,2
     43,9326	     136,982	-125,9	     137,088	-126,1
     43,9355	     136,538	-126,1	     136,641	-126,1
     43,9384	     136,204	-125,9	     136,512	-126,0
     43,9413	     136,045	-126,0	     136,083	-125,9
     43,9443	      135,68	-125,7	     135,971	-125,9
     43,9472	     135,542	-125,9	     135,844	-126,1
     43,9501	     135,383	-125,6	       135,5	-125,9
     43,9531	     134,977	-126,0	     135,092	-126,0
      43,956	      134,74	-125,8	     134,789	-125,9
     43,9589	     134,355	-125,8	     134,573	-126,0
     43,9619	     134,231	-125,8	     134,443	-126,0
     43,9648	     133,912	-125,8	     134,009	-126,0
     43,9677	      133,79	-125,7	       134,1	-125,9
     43,9707	     133,466	-125,9	      133,53	-125,8
     43,9736	      133,11	-125,9	     133,242	-125,8
     43,9765	     132,977	-125,5	     133,092	-126,0
     43,9795	     132,657	-125,7	     132,933	-125,8
     43,9824	     132,565	-125,7	     132,746	-125,6
     43,9853	     132,226	-125,7	     132,361	-125,8
     43,9883	     131,952	-125,5	     131,989	-125,6
     43,9912	     131,642	-125,8	     131,768	-125,7
     43,9941	     131,334	-125,6	     131,689	-125,7
     43,9971	     131,361	-125,8	     131,138	-125,9
          44	     131,209	-125,5	     131,093	-125,4

