X-Data [Hz]	Piezo (M - Filtered) [mV]	Phase [Deg]	Piezo (M - Filtered) [mV]	Phase [Deg]	
	002: [07-10-24 10:27]		003: [07-10-24 10:30]	
        41,5	     1118,76	-36,0	     1139,23	-15,8
      41,502	     1033,95	-25,3	     1104,63	-22,5
     41,5039	     1078,77	-33,7	     1045,97	-16,9
     41,5059	      1079,4	-25,0	     1119,68	-32,4
     41,5078	      1141,1	-30,8	     1080,79	-22,4
     41,5098	     1124,66	-38,1	     1105,04	-36,0
     41,5117	     1057,84	-19,3	     1129,09	-31,6
     41,5137	     1138,46	-34,7	     1086,83	-25,2
     41,5156	     1039,44	-16,2	     1137,87	-32,9
     41,5176	      1098,5	-18,0	     1056,66	-21,2
     41,5196	     1057,14	-12,2	      1110,7	-36,4
     41,5215	     1077,17	-18,1	     1069,54	-13,7
     41,5235	     1062,16	-26,9	     1102,17	-30,3
     41,5254	     1050,93	-11,9	     1139,26	-34,6
     41,5274	      1115,6	-28,3	     1070,68	-18,6
     41,5293	     1075,99	-15,5	     1120,01	-23,0
     41,5313	     1186,73	-34,6	     1066,89	-14,2
     41,5332	     1142,65	-32,9	     1070,47	-20,8
     41,5352	     1124,13	-31,5	     1094,51	-19,3
     41,5371	      1131,4	-38,0	     1077,86	-18,0
     41,5391	     1091,31	-20,3	     1098,35	-22,7
     41,5411	     1137,99	-26,3	     1054,93	-15,7
      41,543	     1061,67	-11,1	     1167,05	-32,4
      41,545	     1118,95	-25,1	     1112,73	-15,7
     41,5469	     1078,73	-17,2	      1122,1	-37,7
     41,5489	     1093,83	-13,6	     1128,01	-31,1
     41,5508	     1114,24	-24,7	     1123,36	-26,5
     41,5528	     1064,39	-17,7	     1159,39	-31,5
     41,5547	     1163,56	-34,2	     1079,19	-15,6
     41,5567	     1105,06	-28,8	      1128,1	-27,0
     41,5587	     1161,89	-32,3	     1076,19	-14,3
     41,5606	     1156,23	-38,8	     1088,57	-24,3
     41,5626	     1118,14	-13,0	     1106,11	-19,1
     41,5645	     1188,91	-29,5	     1094,57	-14,7
     41,5665	     1088,38	-15,5	     1160,14	-27,2
     41,5684	      1070,8	-21,3	     1108,65	-17,5
     41,5704	     1079,77	-24,7	     1178,38	-36,1
     41,5723	     1089,91	-10,5	     1176,13	-27,1
     41,5743	      1167,9	-30,2	      1161,5	-29,1
     41,5762	      1088,4	-19,2	     1192,72	-31,2
     41,5782	     1160,23	-35,3	     1142,59	-21,0
     41,5802	     1133,65	-32,1	     1188,96	-30,7
     41,5821	     1160,93	-24,3	     1119,81	-14,3
     41,5841	     1206,06	-29,9	     1142,32	-26,6
      41,586	     1112,49	-12,9	     1195,39	-29,2
      41,588	     1202,57	-30,6	     1105,47	-16,7
     41,5899	     1103,63	-19,6	     1178,17	-24,1
     41,5919	     1117,32	-19,6	     1118,53	-16,9
     41,5938	     1130,71	-26,2	     1130,08	-23,1
     41,5958	     1118,92	-18,3	     1166,31	-22,2
     41,5978	     1152,09	-25,5	     1197,72	-34,6
     41,5997	     1140,17	-27,7	     1193,86	-28,2
     41,6017	     1126,33	-12,6	     1161,99	-21,5
     41,6036	     1182,46	-30,9	     1193,03	-34,2
     41,6056	     1126,88	-22,2	     1174,21	-26,7
     41,6075	     1162,58	-31,1	     1194,03	-32,7
     41,6095	     1215,89	-33,8	     1210,01	-29,4
     41,6114	     1163,75	-22,5	     1151,32	-22,0
     41,6134	     1132,28	-24,4	     1183,87	-28,2
     41,6153	     1115,61	-15,4	     1114,23	-16,7
     41,6173	     1224,93	-34,2	     1125,37	-19,5
     41,6193	     1184,25	-18,8	     1181,66	-22,2
     41,6212	     1132,51	-21,5	     1139,37	-12,8
     41,6232	     1128,37	-26,9	     1226,47	-35,0
     41,6251	     1140,59	-13,1	     1188,57	-21,2
     41,6271	     1246,27	-24,3	     1215,71	-32,0
      41,629	     1198,87	-31,5	     1193,83	-26,4
      41,631	     1185,98	-25,9	     1191,47	-29,2
     41,6329	     1208,33	-35,6	     1239,77	-34,1
     41,6349	     1140,75	-16,2	     1152,71	-16,4
     41,6369	     1166,19	-16,4	     1197,03	-33,8
     41,6388	     1166,91	-21,2	     1236,47	-33,2
     41,6408	     1147,78	-18,1	     1196,91	-18,9
     41,6427	     1171,62	-27,6	     1239,68	-32,4
     41,6447	      1094,7	-12,4	     1162,86	-18,0
     41,6466	      1055,7	-41,8	     1216,53	-31,9
     41,6486	     1173,51	-30,2	     1203,33	-15,9
     41,6505	     1203,18	-24,6	     1167,67	-15,1
     41,6525	        1196	-29,1	     1214,15	-19,7
     41,6544	     1160,19	-15,0	     1154,88	-13,3
     41,6564	     1237,93	-17,1	     1267,13	-34,8
     41,6584	     1239,18	-22,1	     1260,51	-24,8
     41,6603	     1198,24	-16,2	     1211,99	-27,8
     41,6623	     1226,59	-31,0	     1229,86	-31,8
     41,6642	     1158,77	-16,4	     1198,53	-22,8
     41,6662	     1055,32	-33,7	     1249,04	-33,7
     41,6681	     1220,33	-25,0	     1242,68	-29,8
     41,6701	     1205,94	-18,7	     1195,68	-23,8
      41,672	     1300,25	-33,8	     1268,97	-34,2
      41,674	     1248,82	-30,5	     1168,26	-15,8
      41,676	     1216,41	-19,8	     1290,47	-29,9
     41,6779	     1236,29	-30,4	     1218,06	-19,5
     41,6799	     1189,19	-14,5	     1219,94	-33,4
     41,6818	     1219,71	-22,3	      1279,1	-31,2
     41,6838	     1185,19	-15,6	     1238,14	-18,3
     41,6857	      1194,1	-16,6	     1245,29	-29,9
     41,6877	     1204,83	-25,3	     1251,45	-27,1
     41,6896	     1168,44	-15,7	     1216,95	-22,7
     41,6916	     1304,49	-35,0	     1283,76	-34,1
     41,6936	     1252,81	-30,2	     1213,52	-15,9
     41,6955	     1233,95	-17,6	      1233,4	-23,0
     41,6975	     1283,44	-27,9	     1219,91	-23,3
     41,6994	     1199,99	-14,7	     1211,66	-14,9
     41,7014	     1247,51	-25,4	     1289,36	-30,4
     41,7033	     1274,07	-32,6	     1234,89	-14,1
     41,7053	     1228,71	-16,0	     1310,04	-32,6
     41,7072	     1282,61	-28,2	     1301,95	-25,2
     41,7092	     1209,34	-14,2	     1248,66	-27,7
     41,7111	     1233,02	-14,9	        1308	-30,7
     41,7131	     1268,72	-26,5	     1221,68	-14,0
     41,7151	     1197,03	-22,5	      1255,8	-25,0
      41,717	     1293,39	-30,9	     1231,35	-19,1
      41,719	     1284,27	-30,3	     1226,06	-18,8
     41,7209	     1258,75	-19,5	     1298,04	-31,9
     41,7229	     1329,94	-31,6	      1250,9	-13,9
     41,7248	     1236,55	-16,0	     1239,37	-17,2
     41,7268	     1282,85	-21,1	     1278,67	-20,8
     41,7287	     1249,98	-18,6	     1256,21	-10,9
     41,7307	     1258,13	-11,4	     1327,92	-30,4
     41,7327	        1348	-32,3	     1271,43	-18,3
     41,7346	     1296,86	-26,4	     1305,94	-28,9
     41,7366	     1313,53	-28,5	     1335,66	-29,6
     41,7385	      1346,1	-29,6	     1278,61	-18,2
     41,7405	     1276,41	-19,2	     1347,14	-31,6
     41,7424	     1330,29	-28,3	     1342,02	-26,5
     41,7444	     1326,97	-31,3	     1274,35	-29,7
     41,7463	     1266,22	-16,5	     1341,36	-36,0
     41,7483	     1323,78	-24,6	     1260,08	-15,2
     41,7502	     1273,33	-16,7	     1289,92	-24,5
     41,7522	     1282,87	-14,9	     1323,01	-18,7
     41,7542	     1343,94	-30,7	     1267,17	-13,8
     41,7561	     1269,45	-22,5	     1362,79	-31,4
     41,7581	     1312,69	-23,2	     1338,97	-24,3
       41,76	     1257,55	-16,3	        1324	-25,0
      41,762	     1280,17	-11,0	     1370,69	-27,5
     41,7639	     1325,73	-28,2	      1270,6	-14,3
     41,7659	     1286,53	-20,3	     1306,65	-25,3
     41,7678	     1337,74	-30,3	     1277,62	-13,2
     41,7698	     1326,93	-27,1	     1284,11	-14,6
     41,7718	     1293,11	-18,3	     1378,69	-20,5
     41,7737	     1376,42	-27,1	     1312,97	-15,0
     41,7757	     1355,75	-33,3	     1303,09	-18,5
     41,7776	     1288,66	-15,3	     1329,21	-17,6
     41,7796	     1359,49	-24,4	     1307,75	-14,3
     41,7815	     1309,57	-15,7	     1418,67	-29,4
     41,7835	     1398,69	-28,4	     1355,47	-19,4
     41,7854	     1383,59	-32,5	     1358,25	-31,5
     41,7874	     1341,83	-17,4	     1364,36	-27,2
     41,7893	     1390,39	-25,1	      1295,7	-16,3
     41,7913	     1307,15	-18,4	     1343,88	-21,3
     41,7933	     1282,54	-10,0	     1321,72	-15,6
     41,7952	     1335,53	-29,7	     1327,84	-17,0
     41,7972	      1307,1	-20,3	     1355,15	-26,9
     41,7991	     1299,76	-15,6	     1322,17	-15,4
     41,8011	     1400,74	-27,5	     1306,46	-15,5
      41,803	     1325,38	-23,7	     1373,96	-24,2
      41,805	     1397,07	-24,3	     1325,58	-13,5
     41,8069	     1401,75	-28,8	     1436,69	-27,3
     41,8089	     1338,94	-13,1	     1416,74	-25,7
     41,8109	     1347,61	-21,7	     1337,74	-19,4
     41,8128	     1306,86	-18,3	     1392,83	-32,1
     41,8148	     1315,01	-14,2	     1288,82	-14,6
     41,8167	     1415,36	-30,3	     1334,84	-19,5
     41,8187	     1360,08	-19,6	      1370,7	-16,6
     41,8206	     1417,77	-26,3	      1347,3	-13,7
     41,8226	     1394,13	-31,3	     1410,48	-26,6
     41,8245	     1311,13	-10,7	     1348,21	-21,3
     41,8265	     1378,78	-16,5	     1352,25	-18,0
     41,8284	     1349,04	-20,6	     1445,35	-31,4
     41,8304	     1335,64	-14,4	     1394,91	-21,5
     41,8324	     1410,76	-32,5	     1417,28	-28,8
     41,8343	     1386,44	-26,0	     1448,78	-28,3
     41,8363	     1385,53	-15,5	      1387,7	-23,5
     41,8382	     1430,39	-27,0	      1431,7	-29,9
     41,8402	     1334,16	-13,3	     1351,46	-17,6
     41,8421	     1365,52	-15,1	     1361,84	-17,8
     41,8441	      1380,9	-24,3	     1435,83	-23,6
      41,846	     1331,42	-16,8	     1389,91	-15,9
      41,848	     1428,52	-31,4	     1467,39	-32,0
       41,85	     1402,99	-23,7	     1499,05	-27,9
     41,8519	     1402,45	-13,3	     1398,84	-21,9
     41,8539	     1451,61	-25,5	      1440,8	-30,8
     41,8558	     1327,11	-12,9	     1363,26	-11,9
     41,8578	     1368,52	-10,6	     1364,22	-10,8
     41,8597	     1445,78	-24,5	     1472,81	-21,1
     41,8617	     1401,31	-20,1	     1409,43	-14,5
     41,8636	     1455,62	-29,0	     1469,82	-29,4
     41,8656	     1435,95	-25,1	     1500,69	-28,4
     41,8675	     1402,46	-15,9	      1392,8	-16,8
     41,8695	      1487,8	-19,9	      1437,6	-26,1
     41,8715	     1460,87	-29,1	     1484,16	-32,1
     41,8734	     1356,24	-14,4	     1415,24	-13,8
     41,8754	     1409,07	-10,2	     1447,85	-23,3
     41,8773	     1425,85	-17,0	     1425,35	-12,2
     41,8793	     1428,27	-14,5	     1410,82	-11,5
     41,8812	     1519,03	-26,1	     1519,71	-26,4
     41,8832	     1502,66	-25,6	     1483,06	-23,3
     41,8851	     1464,42	-15,9	     1475,97	-22,7
     41,8871	     1482,24	-27,1	     1518,75	-29,1
     41,8891	     1400,25	-11,3	     1450,41	-11,3
      41,891	     1446,78	-15,7	     1527,55	-27,6
      41,893	     1416,42	-18,6	     1495,11	-19,2
     41,8949	     1404,76	-13,4	      1440,8	-13,0
     41,8969	     1548,76	-27,8	     1503,66	-30,3
     41,8988	      1499,1	-25,4	     1498,76	-23,6
     41,9008	      1444,4	-12,1	     1477,86	-23,0
     41,9027	     1508,34	-24,4	     1534,96	-30,1
     41,9047	     1426,66	-15,3	     1428,88	-12,5
     41,9066	     1428,98	-10,3	     1430,83	-14,6
     41,9086	     1533,47	-22,0	     1526,02	-21,5
     41,9106	     1479,83	-18,7	     1477,47	-15,3
     41,9125	     1426,26	-13,2	     1526,16	-30,1
     41,9145	     1534,04	-26,5	     1543,59	-26,4
     41,9164	     1493,27	-28,1	     1463,31	-13,9
     41,9184	     1471,55	-17,2	     1489,49	-23,1
     41,9203	     1509,75	-26,7	     1440,93	-13,5
     41,9223	     1426,35	-12,3	     1432,85	-14,1
     41,9242	     1467,96	-14,0	     1560,33	-25,2
     41,9262	     1535,16	-28,7	     1532,79	-15,7
     41,9282	     1479,31	-17,4	     1547,21	-26,8
     41,9301	     1550,15	-20,0	      1591,4	-29,2
     41,9321	     1562,99	-30,0	     1466,42	-12,4
      41,934	     1488,46	-14,6	     1491,08	-16,3
      41,936	     1542,03	-15,6	     1548,07	-20,1
     41,9379	     1505,85	-15,7	     1515,77	-14,9
     41,9399	     1447,14	-15,2	     1574,43	-26,5
     41,9418	     1595,86	-25,3	        1626	-26,1
     41,9438	     1542,21	-26,8	     1507,87	-15,8
     41,9457	      1571,4	-19,5	     1549,64	-21,7
     41,9477	     1631,59	-25,5	     1530,64	-13,4
     41,9497	     1576,77	-25,1	      1512,3	-13,4
     41,9516	     1517,63	-13,9	     1612,65	-20,9
     41,9536	     1570,42	-22,5	     1561,58	-17,6
     41,9555	     1504,12	-17,5	     1569,25	-25,5
     41,9575	     1511,74	-12,1	     1601,58	-27,8
     41,9594	     1631,81	-21,7	     1518,63	-11,4
     41,9614	     1520,62	-13,8	     1541,37	-19,2
     41,9633	     1539,73	-13,8	     1593,73	-18,6
     41,9653	     1563,35	-24,6	      1554,3	-11,8
     41,9673	     1535,91	-16,5	     1608,43	-25,5
     41,9692	     1630,81	-22,5	     1617,05	-22,6
     41,9712	     1604,52	-24,3	     1581,28	-16,0
     41,9731	     1578,37	-18,5	     1610,15	-22,0
     41,9751	     1639,51	-13,9	      1629,5	-26,7
      41,977	     1673,86	-26,7	     1571,01	-13,1
      41,979	     1546,65	-13,9	     1617,05	-17,4
     41,9809	     1643,87	-25,9	     1652,66	-20,4
     41,9829	     1605,52	-24,5	      1601,9	-12,2
     41,9848	     1559,02	-19,6	     1645,89	-23,9
     41,9868	      1609,6	-18,4	     1560,35	-15,0
     41,9888	     1577,98	-23,0	     1571,78	-12,0
     41,9907	     1574,04	-6,9	     1646,74	-24,1
     41,9927	      1657,5	-25,4	     1612,58	-18,6
     41,9946	     1617,88	-22,9	     1592,02	-15,1
     41,9966	     1599,22	-14,0	     1693,75	-25,3
     41,9985	     1704,47	-22,4	     1674,82	-22,8
     42,0005	     1686,44	-30,5	     1604,29	-18,7
     42,0024	     1578,04	-8,7	     1625,16	-17,6
     42,0044	     1643,42	-18,2	     1583,73	-8,8
     42,0064	     1581,23	-14,7	     1677,12	-25,3
     42,0083	     1593,99	-10,8	     1721,63	-26,1
     42,0103	     1692,12	-27,3	     1621,56	-17,5
     42,0122	     1633,44	-23,7	     1648,93	-20,4
     42,0142	     1592,39	-12,9	     1708,68	-25,2
     42,0161	     1685,52	-24,0	     1662,81	-15,7
     42,0181	     1699,98	-22,6	     1669,54	-19,2
       42,02	     1651,41	-3,5	     1684,12	-20,8
      42,022	     1687,15	-16,4	     1645,79	-17,2
     42,0239	     1674,97	-20,5	     1719,63	-26,7
     42,0259	      1642,7	-15,0	     1743,13	-23,7
     42,0279	     1713,69	-23,6	     1657,59	-12,9
     42,0298	     1655,56	-26,2	     1664,98	-16,4
     42,0318	     1620,81	-14,5	     1712,11	-14,0
     42,0337	     1679,68	-20,2	     1673,41	-7,5
     42,0357	     1623,77	-18,9	     1739,32	-25,3
     42,0376	     1618,23	-6,8	     1729,47	-23,9
     42,0396	     1764,92	-22,8	     1674,49	-8,7
     42,0415	     1709,13	-22,6	     1705,87	-21,2
     42,0435	     1674,65	-17,5	     1378,63	-35,1
     42,0455	     1754,75	-18,9	     1660,95	-12,7
     42,0474	     1749,39	-22,8	      1767,9	-25,5
     42,0494	      1688,8	-7,4	     1752,88	-22,9
     42,0513	      1740,2	-14,2	     1667,88	-17,1
     42,0533	     1687,36	-16,8	     1726,41	-20,6
     42,0552	     1660,87	-12,4	     1700,36	-15,4
     42,0572	     1702,44	-13,3	     1692,69	-7,0
     42,0591	     1741,47	-20,6	     1774,64	-20,5
     42,0611	     1675,59	-17,6	     1765,19	-18,2
      42,063	     1772,99	-20,5	      1756,5	-16,7
      42,065	     1765,92	-22,2	     1825,09	-24,6
      42,067	     1668,61	-9,7	     1832,92	-23,3
     42,0689	      1703,6	-10,6	     1724,56	-11,1
     42,0709	     1749,24	-18,5	     1816,14	-23,2
     42,0728	     1724,92	-13,7	     1801,45	-18,5
     42,0748	     1810,24	-22,2	     1779,48	-23,1
     42,0767	      1792,3	-24,6	     1834,08	-26,7
     42,0787	     1751,46	-13,8	     1844,35	-16,6
     42,0806	     1789,85	-15,3	     1733,07	-10,4
     42,0826	      1829,3	-19,2	     1764,78	-8,8
     42,0846	     1743,78	-9,3	     1779,54	-8,2
     42,0865	     1720,44	-9,7	     1779,72	-12,3
     42,0885	     1831,98	-26,4	     1872,09	-23,1
     42,0904	     1815,81	-23,4	     1858,71	-19,2
     42,0924	     1762,92	-5,3	     1761,24	-13,9
     42,0943	     1824,31	-16,8	     1817,46	-21,7
     42,0963	     1776,91	-13,6	     1800,83	-10,4
     42,0982	     1772,55	-3,1	     1776,58	-8,9
     42,1002	     1872,06	-25,2	     1888,01	-22,1
     42,1021	     1792,87	-22,7	      1889,2	-13,6
     42,1041	     1827,32	-11,3	     1848,77	-8,4
     42,1061	     1867,47	-18,9	     1862,23	-21,2
      42,108	     1781,54	-14,6	     1869,38	-19,1
       42,11	     1792,51	-10,9	     1801,46	-6,8
     42,1119	     1911,77	-17,3	     1835,29	-8,7
     42,1139	     1869,06	-21,1	     1942,32	-18,7
     42,1158	      1804,8	-14,9	     1870,27	-11,9
     42,1178	      1871,6	-12,8	     1896,94	-15,5
     42,1197	      1891,2	-22,5	     1914,12	-18,9
     42,1217	     1813,47	-9,2	     1824,68	-6,3
     42,1237	     1839,14	-11,1	     1852,11	-15,3
     42,1256	     1890,21	-18,6	     1911,29	-24,4
     42,1276	     1840,29	-16,7	     1838,75	-13,1
     42,1295	     1901,14	-11,9	      1832,8	-10,6
     42,1315	     1963,96	-17,6	     1986,81	-19,5
     42,1334	     1872,01	-6,7	     1936,57	-17,1
     42,1354	     1864,29	-6,8	     1896,64	-18,0
     42,1373	     1928,37	-22,7	     1979,16	-22,2
     42,1393	     1886,76	-17,5	     1888,95	-6,3
     42,1413	     1891,47	-8,9	     1867,45	-10,0
     42,1432	     1928,34	-18,4	     1960,85	-21,0
     42,1452	      1849,5	-19,0	     1943,87	-16,2
     42,1471	     1826,48	-3,1	     1876,67	-10,2
     42,1491	     1955,17	-19,6	     1928,61	-16,9
      42,151	     1931,79	-28,6	     1946,31	-9,1
      42,153	     1898,91	-11,2	     1921,69	-5,0
     42,1549	     1960,34	-15,8	      2017,8	-20,7
     42,1569	     2010,06	-21,9	     1942,35	-9,2
     42,1588	     1889,92	-3,6	     1899,14	-7,8
     42,1608	     1919,21	-10,4	     1916,36	-10,7
     42,1628	     2003,28	-24,5	     1947,14	-9,2
     42,1647	     1979,05	-14,3	     1931,89	-7,3
     42,1667	     1941,37	-3,5	     2017,14	-17,8
     42,1686	     1982,96	-14,8	     2043,03	-20,6
     42,1706	     1959,95	-15,8	     1906,12	-6,0
     42,1725	      1963,2	-17,4	     1935,39	-10,7
     42,1745	     2033,73	-16,4	      2037,2	-18,9
     42,1764	     1972,45	-6,9	     2011,71	-9,7
     42,1784	     1959,62	-8,3	     2011,43	-16,5
     42,1804	     1968,77	-7,0	     2066,69	-15,6
     42,1823	     2044,85	-14,1	     1975,21	-8,3
     42,1843	     1993,87	-19,4	      1968,4	-8,7
     42,1862	     2025,91	-12,2	     2064,89	-17,2
     42,1882	     2067,37	-11,0	     2033,92	-9,6
     42,1901	     1995,72	-6,0	     2005,58	-16,1
     42,1921	     1969,62	-11,5	     2033,45	-17,6
      42,194	     2070,91	-18,0	     2021,67	-5,1
      42,196	     2071,61	-15,2	     1998,41	-5,1
     42,1979	     1993,44	-5,0	     2098,49	-16,4
     42,1999	     2016,97	-8,9	     2117,35	-17,5
     42,2019	     2072,94	-17,9	     2026,78	-5,3
     42,2038	     2021,63	-11,3	     2064,27	-11,2
     42,2058	     2081,95	-15,0	     2122,27	-13,6
     42,2077	     2101,92	-22,8	     2083,43	-6,9
     42,2097	     1998,89	-9,2	     2095,11	-12,3
     42,2116	     1992,97	-5,4	     2149,33	-15,3
     42,2136	     2116,79	-18,1	     2060,92	-7,3
     42,2155	     2095,83	-19,4	     2072,89	-6,7
     42,2175	     2068,28	-5,6	     2187,97	-15,8
     42,2195	     2108,62	-11,3	     2158,29	-9,2
     42,2214	     2107,46	-14,5	     2086,09	-14,5
     42,2234	     2075,28	-11,4	      2125,5	-9,8
     42,2253	     2163,14	-13,0	     2119,12	-7,2
     42,2273	     2152,35	-18,3	     2082,67	-5,4
     42,2292	     2122,23	-17,7	     2157,22	-22,0
     42,2312	     2099,41	-4,5	     2174,85	-20,5
     42,2331	     2144,18	-9,7	     2189,95	-14,5
     42,2351	     2122,23	-13,1	     2118,59	-7,6
      42,237	     2111,44	-5,7	     2164,02	-17,9
      42,239	     2203,95	-11,1	     2099,31	-5,9
      42,241	     2207,18	-21,6	     2092,48	-6,9
     42,2429	     2107,99	-6,3	     2217,09	-15,7
     42,2449	     2137,01	-7,7	     2243,47	-20,4
     42,2468	     2154,36	-15,2	     2136,78	-4,0
     42,2488	      2124,7	-12,1	     2264,89	-15,3
     42,2507	     2161,58	-3,4	     2271,16	-15,3
     42,2527	     2226,11	-9,2	     2198,89	-5,0
     42,2546	     2174,69	-10,6	      2224,5	-12,0
     42,2566	      2130,6	-7,8	     2282,25	-14,0
     42,2586	     2223,03	-11,3	     2243,47	-6,7
     42,2605	      2241,1	-16,3	     2207,95	-1,9
     42,2625	     2145,99	-6,3	     2308,44	-11,4
     42,2644	     2170,03	-4,6	     2335,24	-15,9
     42,2664	     2297,39	-17,0	     2211,55	-7,2
     42,2683	     2261,26	-17,7	     2244,57	-7,6
     42,2703	      2219,6	-5,5	     2367,14	-8,8
     42,2722	     2303,51	-9,6	     2362,46	-7,5
     42,2742	     2265,21	-9,7	     2271,62	-4,6
     42,2761	     2229,98	-9,9	     2340,08	-11,0
     42,2781	     2280,31	-8,5	      2282,9	-1,4
     42,2801	     2300,75	-14,8	     2281,92	-5,5
      42,282	     2164,05	-10,9	     2347,66	-14,1
      42,284	     2176,82	-2,5	     2346,41	-11,5
     42,2859	     2328,75	-9,6	     2217,01	-5,0
     42,2879	     2294,54	-18,5	     2251,83	-8,3
     42,2898	     2270,18	-8,1	     2350,01	-8,3
     42,2918	     2277,07	-5,7	     2339,85	-9,4
     42,2937	     2359,08	-10,2	     2273,46	-8,7
     42,2957	     2266,57	-10,0	     2344,37	-14,3
     42,2977	     2264,32	-3,8	     2336,65	-6,4
     42,2996	     2360,82	-8,7	     2285,72	-3,6
     42,3016	     2392,47	-13,4	     2399,87	-16,5
     42,3035	     2288,27	-2,7	     2462,94	-11,2
     42,3055	      2281,9	-1,7	     2376,44	-0,4
     42,3074	     2413,21	-15,5	     2400,01	-7,1
     42,3094	     2399,93	-15,2	      2469,5	-7,9
     42,3113	     2355,17	-3,6	     2445,85	-2,5
     42,3133	     2381,73	-6,2	     2437,64	-10,9
     42,3153	      2354,8	-9,0	     2481,06	-9,7
     42,3172	     2326,01	-7,2	     2428,66	-0,4
     42,3192	     2421,25	-4,6	     2364,92	 0,4
     42,3211	     2464,32	-12,1	     2360,74	-5,3
     42,3231	     2358,78	-2,8	     2461,71	-9,6
      42,325	     2356,13	-2,9	     2455,24	-8,5
      42,327	     2488,12	-10,4	     2401,94	-10,2
     42,3289	     2487,61	-11,3	     2437,45	-9,6
     42,3309	     2463,42	-10,3	     2451,59	-2,5
     42,3328	     2429,64	-2,0	     2484,23	-4,4
     42,3348	     2473,44	-5,0	     2493,18	-10,8
     42,3368	     2414,69	-6,7	     2532,46	-12,6
     42,3387	     2406,41	-4,8	     2508,36	 0,1
     42,3407	     2506,27	-8,4	        2492	-1,9
     42,3426	      2514,7	-7,5	     2615,34	-6,4
     42,3446	     2444,28	-5,3	     2587,08	-7,1
     42,3465	     2456,67	-0,4	     2513,62	-3,1
     42,3485	     2579,79	-10,7	     2549,19	-3,6
     42,3504	     2564,69	-12,8	     2573,31	-6,4
     42,3524	     2505,36	-1,4	      2531,9	-1,6
     42,3544	        2536	-1,1	     2558,14	-11,8
     42,3563	     2570,43	-8,1	     2607,24	-11,3
     42,3583	     2552,18	-9,9	     2555,72	-2,5
     42,3602	     2552,55	-3,2	     2546,56	-2,4
     42,3622	     2577,85	-5,4	     2641,56	-13,3
     42,3641	     2525,09	-9,1	     2695,53	-11,8
     42,3661	     2489,27	-2,4	     2601,63	-6,3
      42,368	     2487,25	-2,6	     2598,34	 1,5
       42,37	     2596,23	-11,3	     2649,57	-9,0
     42,3719	     2631,05	-11,5	     2684,67	-2,5
     42,3739	     2548,06	 2,8	     2641,28	 1,5
     42,3759	     2581,77	 1,5	     2637,45	-9,4
     42,3778	     2627,26	-9,3	     2698,36	-9,5
     42,3798	     2594,06	-5,7	     2647,83	-1,1
     42,3817	     2590,51	-1,4	      2618,5	 1,1
     42,3837	      2624,2	-0,7	      2746,9	-12,1
     42,3856	     2667,66	-7,2	     2793,06	-2,8
     42,3876	      2655,5	-3,7	     2719,79	 3,4
     42,3895	     2704,15	-2,7	      2714,4	-1,7
     42,3915	     2739,28	-3,7	     2805,67	 2,4
     42,3935	     2664,89	-1,6	     2775,44	 0,6
     42,3954	     2644,39	-2,6	     2707,96	-2,3
     42,3974	     2742,03	-5,9	     2743,87	-5,3
     42,3993	      2757,9	-5,7	     2764,24	 0,6
     42,4013	     2642,29	-0,2	     2716,87	 2,7
     42,4032	     2648,38	 0,2	     2711,64	 5,2
     42,4052	      2792,7	-3,2	     2813,33	-8,6
     42,4071	     2805,39	-10,5	     2847,73	-10,3
     42,4091	     2704,18	-1,5	        2780	 2,2
      42,411	     2707,57	 2,9	      2777,6	-1,4
      42,413	     2814,81	-5,0	     2893,26	-5,2
      42,415	     2836,03	-6,4	     2862,98	 4,7
     42,4169	      2734,3	 5,0	     2789,34	 0,3
     42,4189	     2760,94	 3,0	     2810,36	-8,7
     42,4208	     2826,51	-9,0	     2873,55	-6,1
     42,4228	     2803,97	-3,7	     2805,11	 2,5
     42,4247	     2724,06	 3,6	     2811,52	 2,8
     42,4267	     2756,79	 4,6	     2934,32	-6,2
     42,4286	     2831,44	-2,8	      2976,1	-4,8
     42,4306	     2823,92	-4,2	     2882,22	 3,5
     42,4326	     2824,17	 5,3	     2914,38	 4,6
     42,4345	     2854,65	 1,5	     2990,66	 1,5
     42,4365	     2829,26	-3,8	     2944,48	-2,1
     42,4384	     2818,76	-1,2	     2903,54	 2,2
     42,4404	     2897,48	 0,7	     2935,31	-2,5
     42,4423	     2930,04	 2,1	     2983,33	-7,4
     42,4443	     2955,49	-2,7	     2891,67	 6,9
     42,4462	     2850,69	 2,0	     2896,78	 6,6
     42,4482	     2867,39	 6,8	     3025,14	-7,1
     42,4501	     3023,05	-3,2	     3072,73	-2,8
     42,4521	     3013,58	-5,8	      2990,4	 4,6
     42,4541	     2875,84	 5,2	     3002,98	-1,1
      42,456	     3018,57	 0,0	     3118,61	-0,3
      42,458	     3016,98	-3,0	     3108,59	 5,7
     42,4599	     2915,27	 2,5	     3042,88	-1,1
     42,4619	     2932,94	 4,6	     3069,39	-0,5
     42,4638	     2951,54	 5,4	     3125,17	 1,6
     42,4658	     3036,34	-3,5	     3110,84	 1,2
     42,4677	     3033,27	-2,2	     3049,15	 1,7
     42,4697	     2998,85	 7,7	     3070,28	-1,2
     42,4717	     3021,52	 5,9	     3133,51	 5,8
     42,4736	     3092,45	 1,9	     3088,73	 1,6
     42,4756	     3063,69	-2,7	     3073,33	-3,5
     42,4775	     3032,87	 5,4	     3143,88	-1,2
     42,4795	     3142,81	-0,6	     3128,76	 9,7
     42,4814	     3143,44	 2,6	     3118,71	 9,0
     42,4834	      3017,7	 8,1	     3214,89	 2,2
     42,4853	      3054,8	 8,1	     3249,47	-0,2
     42,4873	      3152,6	 1,3	     3167,52	 9,0
     42,4892	     3155,11	-1,2	      3162,6	10,1
     42,4912	     3053,94	10,4	     3270,53	 5,0
     42,4932	     3104,65	12,8	        3259	 1,3
     42,4951	     3147,68	 5,9	     3150,09	 8,2
     42,4971	     3148,02	 4,6	     3168,35	 8,5
      42,499	     3139,03	 6,3	     3146,73	 5,4
      42,501	     3184,04	10,9	     3281,24	 5,7
     42,5029	     3225,56	 6,5	     3258,24	 9,5
     42,5049	     3183,92	 6,8	     3192,02	 7,8
     42,5068	     3148,65	 4,9	     3253,76	 5,3
     42,5088	     3227,96	 6,9	     3359,47	 9,7
     42,5108	     3271,64	 5,4	     3361,74	10,8
     42,5127	     3179,67	 6,6	     3320,17	 6,4
     42,5147	     3198,85	10,3	     3472,88	 1,4
     42,5166	     3327,08	 7,1	     3432,25	 9,9
     42,5186	     3329,63	 5,4	     3322,57	10,8
     42,5205	     3222,91	11,5	     3357,15	 5,7
     42,5225	     3217,64	 9,9	     3385,62	 9,1
     42,5244	     3342,03	 7,7	      3428,3	 9,1
     42,5264	      3368,4	 3,3	     3414,78	12,3
     42,5283	     3376,58	 3,0	     3440,29	 7,1
     42,5303	     3299,25	11,8	     3473,12	 3,3
     42,5323	     3321,42	14,1	     3442,39	 8,1
     42,5342	     3450,83	 3,1	     3445,42	11,2
     42,5362	     3428,57	 2,2	      3470,6	 6,6
     42,5381	     3355,33	12,9	     3500,14	 3,6
     42,5401	     3374,18	14,1	     3517,72	13,8
      42,542	     3478,75	 5,8	     3501,47	15,9
      42,544	     3461,79	 5,2	     3536,84	 9,0
     42,5459	     3380,61	14,3	     3552,99	 2,5
     42,5479	     3410,74	15,9	     3509,27	17,3
     42,5499	      3541,2	 4,4	     3499,87	 9,9
     42,5518	     3496,76	 7,9	     3581,65	 5,9
     42,5538	      3453,4	14,6	     3633,65	 6,7
     42,5557	     3486,86	 9,8	     3550,21	18,6
     42,5577	     3547,04	 9,7	     3539,63	 9,8
     42,5596	      3528,5	 7,0	     3651,17	 6,2
     42,5616	     3483,58	14,9	     3697,13	11,1
     42,5635	     3511,82	15,4	     3615,53	16,7
     42,5655	     3605,23	 7,1	     3598,13	18,2
     42,5674	     3585,01	 5,4	     3716,79	 8,0
     42,5694	     3517,57	14,6	     3741,42	 9,7
     42,5714	     3558,92	15,4	     3649,23	18,3
     42,5733	     3587,45	15,3	     3655,27	16,9
     42,5753	     3604,68	10,8	      3733,6	15,2
     42,5772	     3606,98	10,9	     3767,29	13,9
     42,5792	     3641,74	18,8	     3690,84	18,9
     42,5811	     3670,76	19,3	     3677,29	16,4
     42,5831	     3707,53	11,4	      3791,5	 9,7
      42,585	     3636,42	16,9	     3815,33	13,6
      42,587	     3639,92	17,6	     3738,21	19,9
      42,589	     3750,59	13,7	     3728,97	23,8
     42,5909	     3734,83	10,6	     3792,79	18,7
     42,5929	     3638,51	15,9	     3836,74	12,2
     42,5948	     3641,67	18,8	     3768,75	23,1
     42,5968	     3759,49	13,2	     3762,07	23,5
     42,5987	     3774,47	10,1	      3776,9	20,7
     42,6007	     3769,12	12,2	     3920,87	20,3
     42,6026	     3713,58	18,5	     3943,77	19,0
     42,6046	     3733,78	22,4	     3822,44	23,1
     42,6065	     3842,21	12,4	      3847,9	27,7
     42,6085	     3724,55	21,6	     3977,78	19,3
     42,6105	     3736,85	19,8	     3979,16	14,7
     42,6124	     3764,53	22,0	     3863,96	26,4
     42,6144	     3862,23	16,4	     3882,93	17,8
     42,6163	      3837,5	10,6	     4002,17	18,2
     42,6183	      3760,1	21,2	     4005,93	19,9
     42,6202	     3784,87	20,1	     3878,07	25,2
     42,6222	     3892,09	13,1	     3869,54	26,1
     42,6241	     3920,66	19,4	     4032,47	17,0
     42,6261	     3822,81	22,4	     4048,59	22,3
     42,6281	     3834,17	21,2	     3975,51	25,7
       42,63	      3970,7	20,6	     4002,56	23,6
      42,632	     3980,58	14,5	     4109,78	21,2
     42,6339	     3880,05	24,2	     4089,83	25,9
     42,6359	     3901,67	22,8	     4082,08	23,9
     42,6378	     3918,73	25,8	     3993,91	26,0
     42,6398	     4044,65	19,4	     4024,62	23,9
     42,6417	     4045,85	18,6	     4175,93	21,3
     42,6437	     3951,71	23,7	     4161,65	26,6
     42,6456	     3951,14	27,6	     4071,62	29,6
     42,6476	     4087,41	18,6	     4184,42	21,2
     42,6496	     4051,32	16,5	     4180,02	22,0
     42,6515	     3960,44	26,6	     4125,49	28,5
     42,6535	     4002,52	25,2	      4121,4	29,7
     42,6554	     4131,72	20,3	     4137,37	31,0
     42,6574	     4126,85	21,7	     4229,25	25,6
     42,6593	     4103,27	19,8	      4261,9	26,1
     42,6613	     4048,91	26,1	      4175,2	28,6
     42,6632	     4058,19	25,7	     4194,24	29,7
     42,6652	      4136,4	22,3	     4292,16	24,5
     42,6672	     4123,78	22,5	     4303,04	25,9
     42,6691	     4087,72	28,2	     4176,67	33,0
     42,6711	     4122,58	29,7	     4181,25	32,2
      42,673	     4204,77	22,5	     4276,09	26,9
      42,675	     4179,48	22,3	     4317,72	27,2
     42,6769	     4136,85	25,1	     4253,17	33,5
     42,6789	     4110,91	32,8	     4228,57	35,0
     42,6808	     4131,97	30,0	     4254,43	30,0
     42,6828	      4246,1	25,5	     4276,87	28,8
     42,6847	     4239,52	27,0	     4268,06	33,6
     42,6867	     4175,77	31,6	     4246,75	36,2
     42,6887	     4176,93	34,0	     4271,39	29,2
     42,6906	     4300,45	29,1	      4288,6	26,4
     42,6926	     4285,45	29,8	     4363,81	36,5
     42,6945	     4166,08	29,0	      4370,6	35,3
     42,6965	     4256,08	33,9	     4286,03	34,5
     42,6984	      4282,4	29,6	     4282,93	34,7
     42,7004	     4293,29	33,4	     4399,39	33,8
     42,7023	     4217,27	32,1	     4373,25	36,7
     42,7043	     4224,12	35,2	     4387,74	35,2
     42,7063	     4305,35	36,7	     4330,22	34,6
     42,7082	      4333,9	32,7	     4357,54	35,6
     42,7102	     4282,31	29,8	     4462,84	39,9
     42,7121	     4273,25	32,9	      4461,3	38,9
     42,7141	     4318,42	35,5	     4364,93	38,3
      42,716	     4325,28	37,0	     4366,04	36,8
      42,718	     4345,41	30,2	     4466,54	35,5
     42,7199	     4341,42	33,2	     4364,77	40,4
     42,7219	     4309,92	40,8	     4353,86	41,1
     42,7239	      4363,8	41,6	     4420,19	36,6
     42,7258	      4407,3	37,5	      4451,4	34,1
     42,7278	     4396,04	34,7	      4493,2	37,8
     42,7297	     4366,72	34,6	      4431,7	43,2
     42,7317	     4344,82	41,8	     4403,06	44,4
     42,7336	     4366,95	40,6	     4449,17	37,7
     42,7356	     4430,26	38,3	     4466,58	33,8
     42,7375	     4402,64	35,8	     4466,33	43,6
     42,7395	     4395,85	33,9	     4470,55	42,4
     42,7414	     4383,93	42,6	      4412,9	39,6
     42,7434	     4411,57	41,2	     4434,86	39,2
     42,7454	     4450,52	37,8	     4526,74	41,0
     42,7473	      4467,9	34,9	      4510,8	41,5
     42,7493	     4342,54	41,5	     4382,06	43,9
     42,7512	     4361,49	41,5	     4408,06	40,8
     42,7532	     4487,17	39,9	      4516,6	43,5
     42,7551	     4401,02	39,2	     4512,23	46,3
     42,7571	     4383,16	41,9	     4410,41	45,0
      42,759	     4395,15	42,1	     4403,91	45,8
      42,761	     4497,49	42,0	     4518,55	40,5
      42,763	     4530,54	41,6	     4546,37	39,9
     42,7649	     4459,89	40,4	     4521,69	47,7
     42,7669	     4475,38	42,1	     4514,71	48,5
     42,7688	      4503,9	46,3	     4532,21	39,7
     42,7708	     4528,47	45,9	     4537,77	47,0
     42,7727	     4547,71	40,5	     4590,63	44,3
     42,7747	     4531,62	39,6	     4565,53	48,8
     42,7766	     4469,08	46,8	     4477,84	47,7
     42,7786	     4465,49	49,2	     4490,43	44,4
     42,7805	     4557,66	41,1	     4587,26	48,6
     42,7825	      4554,3	41,8	     4564,07	46,6
     42,7845	      4464,4	46,8	     4448,58	51,1
     42,7864	     4448,73	46,7	     4435,45	51,5
     42,7884	     4451,87	48,5	     4480,63	48,4
     42,7903	     4579,75	49,3	     4611,44	50,5
     42,7923	     4493,87	44,7	     4600,08	54,5
     42,7942	     4485,68	47,4	     4508,51	50,1
     42,7962	     4467,06	49,1	     4470,87	50,3
     42,7981	     4573,45	52,0	     4603,99	43,6
     42,8001	     4572,18	51,4	     4596,44	50,5
     42,8021	     4497,97	48,2	      4505,8	52,7
      42,804	     4491,63	48,0	     4475,13	60,0
      42,806	     4495,89	54,9	     4493,85	52,8
     42,8079	     4518,41	54,7	     4511,05	48,9
     42,8099	     4620,69	48,9	     4520,01	56,4
     42,8118	     4604,06	51,0	     4505,88	57,6
     42,8138	     4486,13	53,3	     4481,89	56,4
     42,8157	     4483,29	56,8	     4464,27	49,3
     42,8177	        4565	55,3	      4477,6	50,8
     42,8196	     4589,13	54,2	     4547,77	56,3
     42,8216	     4470,16	53,2	     4535,37	57,8
     42,8236	     4461,49	54,4	     4426,81	56,5
     42,8255	     4453,68	55,6	      4428,4	52,8
     42,8275	      4562,7	54,6	     4510,06	56,7
     42,8294	     4562,22	56,1	     4532,37	55,6
     42,8314	     4513,49	53,8	     4412,39	57,9
     42,8333	     4507,23	51,0	     4429,19	57,9
     42,8353	     4474,03	57,2	     4512,62	53,5
     42,8372	      4514,5	56,9	     4510,87	53,6
     42,8392	     4547,33	53,0	     4434,03	61,2
     42,8412	     4526,03	53,1	      4429,7	58,2
     42,8431	     4434,43	58,3	     4419,65	58,5
     42,8451	     4443,54	58,8	     4441,36	55,8
      42,847	     4566,73	59,4	     4443,14	59,2
      42,849	     4563,68	60,8	     4461,68	57,0
     42,8509	     4478,67	54,1	     4426,14	63,8
     42,8529	     4447,25	58,5	     4347,98	56,8
     42,8548	     4460,33	61,2	     4357,63	55,0
     42,8568	     4481,25	61,3	     4493,07	61,2
     42,8587	     4521,14	56,0	     4480,53	61,7
     42,8607	     4514,87	57,5	     4354,96	61,0
     42,8627	      4389,8	63,1	     4339,41	66,9
     42,8646	     4395,39	64,0	      4428,6	54,1
     42,8666	     4400,71	63,2	     4426,84	58,7
     42,8685	     4517,42	62,6	      4379,4	65,2
     42,8705	      4391,9	60,0	     4373,82	65,3
     42,8724	     4396,63	60,3	     4358,06	64,4
     42,8744	     4396,16	66,1	     4376,99	59,6
     42,8763	     4388,45	64,8	     4429,29	63,8
     42,8783	     4459,88	60,4	     4416,42	66,7
     42,8803	     4452,92	60,9	     4295,96	61,8
     42,8822	     4463,75	59,7	     4305,67	64,2
     42,8842	     4367,31	62,7	     4284,89	63,6
     42,8861	     4369,55	65,6	     4395,53	66,8
     42,8881	     4467,78	64,2	     4427,89	62,5
       42,89	     4449,46	63,8	     4287,76	66,3
      42,892	     4350,36	62,1	     4283,02	62,0
     42,8939	     4324,91	63,0	     4351,55	63,9
     42,8959	     4367,35	67,5	      4348,7	62,6
     42,8979	      4372,5	69,2	     4320,63	67,7
     42,8998	     4421,33	65,5	      4276,2	67,9
     42,9018	     4410,58	65,7	     4219,94	66,5
     42,9037	     4276,42	68,5	     4219,51	61,9
     42,9057	     4247,88	69,9	     4326,36	67,2
     42,9076	     4396,32	68,8	     4305,81	67,4
     42,9096	     4394,47	72,1	     4204,52	63,0
     42,9115	     4320,53	67,9	     4187,29	71,5
     42,9135	     4296,15	67,5	     4246,74	66,3
     42,9154	     4272,18	70,6	     4235,72	63,8
     42,9174	     4281,19	69,9	     4275,57	68,8
     42,9194	     4327,55	68,3	     4260,37	73,8
     42,9213	     4318,75	67,4	     4123,16	69,5
     42,9233	     4303,83	66,8	     4137,28	71,1
     42,9252	     4211,09	69,2	     4245,19	66,5
     42,9272	     4203,52	69,0	     4243,12	68,7
     42,9291	     4343,32	70,6	     4128,71	75,0
     42,9311	     4318,95	72,9	     4128,03	76,1
      42,933	     4248,44	69,5	     4136,24	69,4
      42,935	     4245,34	68,1	      4132,2	71,1
      42,937	     4172,75	74,0	     4187,36	73,4
     42,9389	     4298,73	73,1	     4200,56	73,2
     42,9409	        4277	74,5	     4049,36	72,1
     42,9428	     4219,69	71,7	     4055,81	70,6
     42,9448	     4185,06	70,2	     4159,26	70,7
     42,9467	     4145,12	78,3	     4158,04	69,7
     42,9487	     4147,15	75,4	     4142,64	71,6
     42,9506	     4145,61	76,1	     4064,29	76,4
     42,9526	     4200,09	73,2	      4038,6	74,4
     42,9545	     4203,75	71,8	     4060,83	70,8
     42,9565	     4074,03	72,4	      4071,6	71,3
     42,9585	     4061,41	72,3	     4164,16	74,1
     42,9604	     4136,67	77,0	     4100,49	76,8
     42,9624	     4131,99	77,0	     3965,46	79,5
     42,9643	     4155,01	71,7	     3946,02	77,3
     42,9663	     4144,35	73,3	     3996,51	73,3
     42,9682	     4032,86	75,2	     4028,37	75,6
     42,9702	     4026,41	76,6	     4039,54	80,4
     42,9721	     4162,66	78,7	     4042,94	79,2
     42,9741	     4155,06	79,9	     3914,71	78,9
     42,9761	     4078,65	74,0	      3931,7	75,6
      42,978	     4072,56	75,3	     4028,83	75,9
       42,98	     4008,71	78,4	     4044,62	73,8
     42,9819	     4002,38	79,9	     3951,81	77,2
     42,9839	     4112,75	79,6	     3935,57	83,2
     42,9858	     4106,39	76,6	     3907,15	73,5
     42,9878	      3957,2	76,8	     3873,42	77,2
     42,9897	     3947,54	76,0	     3965,04	77,1
     42,9917	      3954,3	75,2	     3956,63	79,6
     42,9936	     3996,56	80,8	     3914,32	85,6
     42,9956	     4000,45	81,2	     3785,16	78,8
     42,9976	     4054,57	77,3	     3780,91	81,6
     42,9995	     4033,05	77,4	     3911,75	78,3
     43,0015	     3880,45	78,3	     3901,31	75,9
     43,0034	      3872,2	79,3	     3889,91	81,7
     43,0054	     3950,83	83,4	     3856,74	82,6
     43,0073	     3927,44	84,8	     3775,36	82,0
     43,0093	     3959,89	79,2	     3783,74	79,6
     43,0112	      3956,2	80,5	     3907,59	78,9
     43,0132	     3819,32	81,5	     3892,84	79,8
     43,0152	     3814,01	82,5	     3796,15	84,7
     43,0171	     3898,06	84,3	     3782,95	80,9
     43,0191	     3889,08	82,5	     3735,51	84,5
      43,021	     3886,98	80,7	     3769,31	78,2
      43,023	     3889,95	80,2	     3760,81	77,1
     43,0249	     3768,22	82,1	     3836,47	83,5
     43,0269	      3747,4	81,0	     3706,05	81,2
     43,0288	     3832,84	82,6	     3682,92	84,2
     43,0308	     3860,01	81,4	     3735,38	84,7
     43,0327	     3838,28	81,9	     3720,98	81,5
     43,0347	     3826,25	83,4	      3724,2	78,2
     43,0367	     3697,99	87,0	     3777,69	88,2
     43,0386	     3684,36	84,8	      3747,2	83,8
     43,0406	     3785,54	88,4	      3576,7	82,8
     43,0425	     3787,63	86,7	     3582,72	86,8
     43,0445	     3753,82	83,0	     3673,27	83,1
     43,0464	     3755,83	81,0	     3653,58	80,4
     43,0484	     3621,53	85,5	     3616,21	87,0
     43,0503	     3626,18	85,4	     3602,63	85,6
     43,0523	     3679,23	86,8	     3606,14	87,3
     43,0543	     3667,28	85,4	     3599,22	81,7
     43,0562	     3706,56	84,0	     3609,95	83,3
     43,0582	     3707,61	82,4	     3684,82	85,7
     43,0601	     3586,36	86,2	     3687,62	84,3
     43,0621	     3582,46	88,2	     3564,02	88,8
      43,064	     3652,28	90,3	      3570,6	87,3
      43,066	     3640,45	91,0	     3571,59	86,5
     43,0679	     3644,62	85,8	     3585,56	84,3
     43,0699	     3644,88	84,8	     3659,89	85,6
     43,0718	     3517,41	88,1	     3626,36	89,4
     43,0738	     3528,54	86,3	     3481,69	84,2
     43,0758	     3579,69	91,5	     3480,93	92,3
     43,0777	     3556,18	89,9	     3544,34	82,1
     43,0797	     3645,91	85,6	     3527,68	83,1
     43,0816	     3643,41	91,3	     3510,63	85,0
     43,0836	     3529,43	84,9	     3534,34	89,6
     43,0855	     3494,94	87,7	     3511,66	89,5
     43,0875	     3468,35	91,2	     3397,37	92,8
     43,0894	      3580,6	90,5	     3398,33	88,8
     43,0914	     3549,21	90,9	     3485,49	88,4
     43,0934	     3481,88	89,8	     3491,71	87,4
     43,0953	     3462,17	88,7	     3467,59	89,8
     43,0973	     3462,03	89,1	     3485,99	91,2
     43,0992	     3425,81	90,7	      3365,9	90,9
     43,1012	     3405,52	89,3	     3341,86	90,7
     43,1031	     3519,62	90,8	      3425,9	85,5
     43,1051	     3505,73	91,2	     3438,35	84,8
      43,107	     3424,32	87,1	     3446,41	92,6
      43,109	     3441,75	87,8	     3416,29	90,0
     43,1109	      3322,4	92,7	     3393,59	97,1
     43,1129	     3323,19	94,3	     3283,75	89,7
     43,1149	     3426,31	92,4	     3369,59	90,2
     43,1168	     3415,81	94,7	     3348,03	87,2
     43,1188	     3345,31	91,9	     3338,24	94,8
     43,1207	     3340,59	90,4	      3350,4	93,2
     43,1227	     3265,19	93,0	     3361,45	91,5
     43,1246	     3279,55	92,2	     3264,45	91,0
     43,1266	     3404,22	93,6	     3252,48	94,0
     43,1285	     3404,01	92,4	     3318,77	85,9
     43,1305	     3360,88	87,4	     3293,97	87,4
     43,1325	      3353,2	90,9	      3308,4	94,8
     43,1344	        3330	91,7	     3302,57	94,3
     43,1364	     3237,48	95,1	     3193,51	95,7
     43,1383	     3204,21	94,5	     3203,99	93,1
     43,1403	     3320,91	95,6	     3185,32	92,5
     43,1422	     3303,53	96,5	     3307,35	92,4
     43,1442	     3277,64	91,2	     3303,38	92,2
     43,1461	     3287,34	89,5	      3236,2	96,0
     43,1481	     3173,21	93,2	     3247,39	95,3
       43,15	     3184,86	92,0	     3136,52	95,6
      43,152	     3256,11	95,9	     3100,05	92,8
      43,154	     3255,28	95,1	     3204,38	90,9
     43,1559	     3244,94	95,6	     3195,07	92,4
     43,1579	     3265,88	93,4	     3232,15	94,0
     43,1598	     3144,15	94,9	     3233,92	96,8
     43,1618	        3130	96,8	      3091,9	95,4
     43,1637	     3147,49	98,4	     3076,74	98,4
     43,1657	     3139,63	97,4	        3122	92,6
     43,1676	     3148,76	96,5	     3114,97	93,5
     43,1696	     3199,57	94,0	     3192,84	96,7
     43,1716	        3188	92,4	     3193,04	95,5
     43,1735	     3066,95	95,5	     3074,48	96,9
     43,1755	      3076,6	93,6	     3069,27	95,0
     43,1774	     3124,16	97,3	      3048,2	95,0
     43,1794	     3112,95	99,5	     3004,24	95,1
     43,1813	     3176,42	94,9	     2989,26	95,3
     43,1833	     3173,21	96,5	     3106,91	95,5
     43,1852	     3167,32	97,8	     3131,71	98,9
     43,1872	     3011,61	98,2	     3064,76	101,6
     43,1891	      3024,9	96,6	     3080,63	97,8
     43,1911	     3021,98	99,1	     2951,34	95,7
     43,1931	     3018,18	98,0	     2932,96	99,3
      43,195	     3122,55	97,2	      3004,3	94,0
      43,197	     3110,28	95,7	     3025,26	93,8
     43,1989	     3058,04	94,5	     3048,85	98,8
     43,2009	     3072,89	97,0	     3058,79	99,4
     43,2028	     2962,19	100,8	     2923,41	98,9
     43,2048	     2931,19	98,3	        2919	99,4
     43,2067	     3032,29	101,4	      2968,7	97,6
     43,2087	     3010,91	101,4	     2955,77	96,5
     43,2107	     3018,17	94,0	      3033,3	97,2
     43,2126	     3013,81	97,1	     3037,37	98,2
     43,2146	     3004,33	95,0	      2946,1	99,0
     43,2165	     2885,08	97,7	     2932,96	100,5
     43,2185	     2911,06	101,1	     2856,86	96,9
     43,2204	     2893,03	102,3	     2837,25	99,2
     43,2224	     3023,99	99,9	      2923,7	95,9
     43,2243	     3014,76	100,0	     2898,41	98,9
     43,2263	      3007,4	101,5	     2915,17	101,4
     43,2282	     2886,09	99,4	      2924,6	102,0
     43,2302	     2898,51	96,0	     2795,56	101,5
     43,2322	     2828,58	100,4	     2790,38	99,3
     43,2341	     2808,89	99,4	     2833,61	97,8
     43,2361	     2900,84	101,3	     2843,29	96,4
      43,238	     2878,08	102,0	     2936,26	96,6
       43,24	     2923,62	97,4	     2903,07	98,2
     43,2419	     2924,86	101,0	     2887,73	101,7
     43,2439	     2808,87	99,5	     2813,41	102,9
     43,2458	     2805,94	99,5	     2809,52	104,2
     43,2478	     2743,41	103,1	     2715,35	101,5
     43,2498	     2846,32	103,1	      2696,9	98,0
     43,2517	     2826,73	102,9	     2785,17	98,8
     43,2537	     2836,91	97,7	     2777,55	95,2
     43,2556	     2841,38	98,4	     2824,29	99,3
     43,2576	     2846,89	100,4	     2830,77	106,0
     43,2595	      2703,2	101,8	     2712,62	102,8
     43,2615	     2721,04	101,5	     2699,12	100,1
     43,2634	      2706,3	104,7	     2720,13	97,4
     43,2654	      2696,1	103,7	     2686,01	101,0
     43,2673	     2816,55	102,1	     2694,26	100,7
     43,2693	     2804,21	102,3	     2797,51	105,1
     43,2713	     2792,79	97,5	     2798,92	101,0
     43,2732	     2669,31	99,8	     2747,41	102,1
     43,2752	     2665,11	100,4	     2640,02	101,0
     43,2771	     2652,94	102,1	     2607,36	102,0
     43,2791	     2715,15	104,0	     2629,53	98,8
      43,281	     2678,29	104,2	     2625,59	106,5
      43,283	     2773,52	103,5	     2640,12	99,6
     43,2849	     2764,28	102,0	     2720,72	106,7
     43,2869	     2649,64	101,5	     2737,09	99,7
     43,2889	     2663,21	98,7	     2633,48	102,7
     43,2908	     2584,87	103,1	     2637,63	103,1
     43,2928	     2577,76	105,3	     2572,78	103,1
     43,2947	     2570,14	105,3	        2558	106,2
     43,2967	     2674,45	105,5	     2633,04	97,8
     43,2986	     2621,95	108,4	     2613,48	99,4
     43,3006	     2684,94	103,2	      2671,2	105,4
     43,3025	     2703,25	103,5	     2689,34	105,3
     43,3045	     2599,44	100,1	     2690,21	103,7
     43,3064	     2604,84	101,3	     2563,72	104,3
     43,3084	      2547,1	106,0	     2564,12	103,8
     43,3104	     2533,74	104,5	     2502,17	102,3
     43,3123	      2646,3	102,5	     2485,72	104,4
     43,3143	     2633,23	107,0	     2599,95	103,6
     43,3162	      2595,5	107,7	      2591,3	101,6
     43,3182	      2615,9	105,2	     2606,24	107,0
     43,3201	     2636,29	101,3	     2641,58	105,1
     43,3221	     2515,22	103,7	     2499,43	106,3
      43,324	     2524,87	101,5	     2486,65	104,6
      43,326	     2479,78	106,4	     2476,08	101,6
      43,328	     2473,47	108,6	     2473,66	103,5
     43,3299	     2585,42	106,8	     2610,91	101,9
     43,3319	      2552,1	109,7	     2566,36	104,0
     43,3338	     2567,68	105,7	     2534,25	105,8
     43,3358	     2556,91	104,6	     2539,98	106,1
     43,3377	     2429,22	105,0	     2415,85	109,5
     43,3397	     2449,94	102,0	     2443,23	107,2
     43,3416	     2405,74	104,6	     2462,79	105,6
     43,3436	     2404,87	108,1	      2445,4	104,9
     43,3456	     2501,12	107,8	     2569,78	102,3
     43,3475	     2472,81	110,9	     2513,48	101,6
     43,3495	     2538,92	104,9	     2497,46	105,6
     43,3514	     2513,48	104,8	     2492,46	106,8
     43,3534	     2400,32	107,6	     2502,83	109,0
     43,3553	     2423,03	102,8	     2384,83	110,7
     43,3573	     2383,62	105,8	     2388,05	107,4
     43,3592	     2367,79	104,6	     2420,32	104,2
     43,3612	     2353,22	111,2	     2408,15	103,1
     43,3631	      2417,4	111,2	      2507,1	104,6
     43,3651	     2493,93	107,1	     2487,96	104,5
     43,3671	     2488,46	106,5	     2426,61	110,0
      43,369	     2492,19	106,5	     2458,48	110,3
      43,371	     2425,36	105,0	     2324,45	108,1
     43,3729	     2434,43	103,9	     2345,16	108,6
     43,3749	     2315,41	105,8	     2324,35	105,6
     43,3768	      2300,8	108,8	     2328,69	107,1
     43,3788	     2363,34	110,8	     2308,99	106,5
     43,3807	     2335,03	112,0	     2412,99	104,7
     43,3827	     2428,88	108,8	     2389,51	106,8
     43,3847	     2408,18	108,2	     2412,11	108,6
     43,3866	     2373,67	105,2	     2417,65	106,8
     43,3886	     2417,43	104,1	     2309,11	110,0
     43,3905	     2293,73	108,1	     2344,73	109,5
     43,3925	     2290,11	106,8	     2268,13	109,0
     43,3944	      2311,6	109,6	     2263,86	108,1
     43,3964	     2297,65	112,2	     2311,78	105,7
     43,3983	     2253,94	110,4	     2289,17	108,5
     43,4003	     2358,89	107,1	     2378,32	105,6
     43,4022	     2334,36	108,2	     2378,22	105,6
     43,4042	     2404,56	107,1	     2325,85	110,6
     43,4062	     2278,91	107,3	     2352,83	110,1
     43,4081	     2305,55	104,9	     2222,54	108,1
     43,4101	     2212,39	111,5	     2215,42	109,6
      43,412	     2197,77	110,6	     2244,59	104,9
      43,414	        2223	108,6	     2205,44	107,8
     43,4159	     2274,32	110,7	     2318,58	108,5
     43,4179	     2268,81	111,9	     2301,74	106,5
     43,4198	     2354,91	108,5	     2332,96	109,7
     43,4218	     2327,37	110,1	     2314,58	108,3
     43,4238	     2319,98	107,2	     2205,46	110,0
     43,4257	     2326,06	109,3	     2203,86	110,2
     43,4277	     2205,45	110,3	     2137,35	108,8
     43,4296	     2236,46	106,1	     2116,78	112,0
     43,4316	     2134,77	109,1	     2178,76	108,3
     43,4335	     2199,55	111,2	     2169,61	109,2
     43,4355	     2177,87	111,6	     2275,91	109,9
     43,4374	     2295,15	111,8	     2264,16	107,5
     43,4394	     2254,64	114,2	     2283,87	109,9
     43,4413	     2261,54	107,7	     2278,76	111,5
     43,4433	     2251,53	108,2	     2175,11	112,8
     43,4453	     2261,75	107,4	     2195,89	112,6
     43,4472	     2150,33	107,1	     2107,94	111,9
     43,4492	      2194,6	107,0	     2106,54	109,6
     43,4511	     2106,18	109,5	     2179,24	107,0
     43,4531	     2163,75	112,1	     2148,33	107,4
      43,455	     2115,59	114,7	     2223,09	107,6
      43,457	     2229,75	113,6	     2216,81	107,6
     43,4589	     2226,75	110,4	     2209,67	110,3
     43,4609	     2200,78	110,4	      2185,2	113,7
     43,4629	     2218,78	108,5	     2063,28	114,1
     43,4648	     2220,49	111,0	     2083,47	111,6
     43,4668	     2120,43	110,4	     2091,37	111,9
     43,4687	     2157,08	109,8	     2036,58	111,5
     43,4707	     2072,57	115,7	     2027,17	111,9
     43,4726	      2080,5	109,5	     2140,29	108,6
     43,4746	        2145	112,7	     2134,73	110,2
     43,4765	     2135,21	113,1	     2205,68	113,3
     43,4785	      2217,4	111,1	     2205,48	107,9
     43,4804	     2155,69	115,0	      2156,5	111,5
     43,4824	     2119,52	109,5	     2171,06	110,2
     43,4844	     2135,05	110,6	     2046,54	113,7
     43,4863	     1997,37	114,2	     2073,96	115,3
     43,4883	     2041,89	109,6	     2002,37	115,0
     43,4902	        2088	106,3	     1994,11	113,5
     43,4922	     2004,92	113,5	     2049,05	109,6
     43,4941	     1981,26	112,1	     2044,76	107,8
     43,4961	     2030,64	113,7	     2166,09	110,6
      43,498	     1993,52	116,3	     2126,17	106,5
        43,5	     1957,14	108,5	      2195,6	111,5

