X-Data [Hz]	Piezo (M - Filtered) [mV]	Phase [Deg]	Piezo (M - Filtered) [mV]	Phase [Deg]	
	002: [07-08-24 08:36]		003: [07-08-24 08:41]	
          41	      876,23	78,5	     1029,44	77,2
     41,0029	     954,504	77,7	      1030,6	77,1
     41,0059	     984,954	77,1	     1035,04	77,2
     41,0088	     1005,52	77,3	     1033,74	77,1
     41,0117	     1013,11	76,9	      1039,8	77,0
     41,0147	     1019,36	77,1	      1041,7	77,4
     41,0176	     1026,08	76,9	     1041,66	77,4
     41,0205	     1026,76	77,2	     1045,91	77,2
     41,0235	      1030,9	77,0	      1046,1	77,3
     41,0264	     1033,69	77,0	     1050,05	77,4
     41,0293	     1036,62	77,2	     1050,58	77,5
     41,0323	     1038,44	77,2	      1053,3	77,3
     41,0352	     1040,64	77,1	     1055,31	77,6
     41,0381	     1043,44	77,0	     1058,76	77,4
     41,0411	     1042,91	77,0	     1061,97	77,3
      41,044	      1048,4	77,3	     1063,49	77,5
     41,0469	     1050,21	77,1	     1068,71	77,7
     41,0499	     1050,73	77,2	     1068,52	77,7
     41,0528	      1055,9	77,3	     1070,51	77,5
     41,0557	     1056,08	77,3	     1071,89	77,4
     41,0587	      1059,6	77,3	     1076,47	77,8
     41,0616	      1062,4	77,2	     1077,36	77,9
     41,0645	     1064,69	77,4	      1080,8	77,7
     41,0674	     1065,94	77,5	     1082,54	77,7
     41,0704	     1068,49	77,3	      1086,3	77,9
     41,0733	     1071,09	77,4	     1090,05	77,9
     41,0762	     1074,45	77,5	     1090,14	78,0
     41,0792	     1075,44	77,6	     1096,07	77,7
     41,0821	     1078,55	77,6	     1097,89	78,0
      41,085	     1083,14	77,5	     1098,98	78,0
      41,088	     1082,95	77,5	     1101,06	78,0
     41,0909	      1085,3	77,8	      1103,4	77,8
     41,0938	     1090,35	77,4	      1107,5	78,1
     41,0968	     1090,76	77,6	     1109,45	78,0
     41,0997	     1092,35	77,6	      1112,9	78,1
     41,1026	     1096,49	77,8	     1115,05	77,9
     41,1056	     1098,63	77,9	     1118,84	78,1
     41,1085	     1101,03	77,7	     1119,63	78,3
     41,1114	     1104,38	77,9	     1123,62	78,1
     41,1144	     1106,85	77,8	     1125,77	78,3
     41,1173	     1109,63	78,1	     1128,99	78,3
     41,1202	     1113,81	77,8	     1131,04	78,5
     41,1232	     1113,27	77,8	     1135,18	78,3
     41,1261	     1118,07	77,8	     1138,14	78,1
      41,129	     1120,76	78,1	     1142,09	78,3
      41,132	     1120,74	77,9	     1143,94	78,5
     41,1349	     1126,17	78,0	     1146,68	78,7
     41,1378	     1129,55	78,0	     1149,29	78,5
     41,1408	     1130,29	78,0	     1153,25	78,5
     41,1437	     1134,23	77,9	     1155,65	78,7
     41,1466	     1136,99	77,9	     1156,22	78,6
     41,1496	      1138,6	78,0	     1161,93	78,5
     41,1525	     1139,83	78,3	     1164,88	78,4
     41,1554	     1145,06	78,3	     1167,18	78,4
     41,1584	     1147,45	78,1	     1169,71	78,8
     41,1613	     1152,13	78,1	     1175,09	78,6
     41,1642	     1152,95	78,2	     1176,03	78,7
     41,1672	     1155,67	78,4	     1176,92	78,6
     41,1701	     1157,61	78,5	     1184,53	78,6
      41,173	     1162,95	78,3	     1184,64	78,8
      41,176	     1164,11	78,5	     1187,63	78,6
     41,1789	     1168,96	78,3	     1192,46	78,8
     41,1818	     1169,99	78,7	     1194,42	78,8
     41,1847	     1173,55	78,6	     1200,53	78,9
     41,1877	     1175,81	78,5	     1201,98	79,2
     41,1906	     1180,46	78,5	     1204,81	79,0
     41,1936	     1181,12	78,7	     1208,68	78,9
     41,1965	     1186,39	78,8	     1210,67	78,9
     41,1994	     1189,32	78,4	     1215,92	79,3
     41,2023	     1192,79	78,6	     1218,47	79,2
     41,2053	     1196,21	78,6	     1221,98	79,1
     41,2082	     1198,61	78,9	     1225,61	79,0
     41,2111	     1203,07	78,5	     1228,97	79,2
     41,2141	     1203,41	78,9	     1232,27	79,4
      41,217	     1210,14	78,8	     1236,97	79,2
     41,2199	     1211,14	78,9	     1240,38	79,2
     41,2229	     1213,78	78,9	     1242,62	79,3
     41,2258	     1217,68	78,8	     1246,77	79,5
     41,2287	     1221,89	78,8	     1250,15	79,5
     41,2317	      1224,4	78,9	     1252,89	79,4
     41,2346	     1227,22	79,0	     1258,12	79,5
     41,2375	     1231,38	79,0	     1260,91	79,5
     41,2405	     1233,29	79,0	     1266,39	79,7
     41,2434	     1236,66	78,9	     1268,32	79,9
     41,2463	     1240,35	79,0	     1272,55	79,6
     41,2493	     1245,02	79,3	     1275,43	79,6
     41,2522	     1248,33	79,4	     1280,27	79,8
     41,2551	     1251,54	79,3	     1282,73	80,0
     41,2581	     1253,68	79,2	     1288,49	79,9
      41,261	     1258,43	79,3	     1292,11	80,0
     41,2639	     1262,83	79,6	     1296,22	79,8
     41,2669	     1265,27	79,6	      1299,6	80,1
     41,2698	     1269,96	79,5	     1304,85	80,2
     41,2727	     1272,46	79,4	      1306,9	80,1
     41,2757	     1277,15	79,6	     1313,78	80,1
     41,2786	     1281,14	79,9	     1316,69	80,1
     41,2815	     1285,62	80,0	     1319,32	80,2
     41,2845	     1290,25	79,8	     1324,34	80,4
     41,2874	     1290,23	79,7	     1330,79	80,3
     41,2903	     1297,14	79,9	      1333,5	80,5
     41,2933	     1300,46	79,9	     1334,73	80,4
     41,2962	      1302,1	80,0	     1342,25	80,3
     41,2991	     1308,06	79,9	     1348,57	80,6
     41,3021	     1311,87	79,8	     1350,07	80,6
      41,305	     1316,51	79,9	     1354,83	80,6
     41,3079	     1317,53	80,1	     1358,26	80,5
     41,3109	     1323,68	80,2	      1365,6	80,9
     41,3138	     1326,92	80,2	     1370,76	81,1
     41,3167	     1330,01	80,2	     1374,03	80,9
     41,3196	     1333,47	80,1	     1379,33	80,9
     41,3226	     1341,13	80,2	     1391,31	80,9
     41,3255	     1343,23	80,1	     1390,93	81,5
     41,3284	     1346,31	80,6	      1382,1	81,4
     41,3314	     1350,98	80,5	     1414,15	80,3
     41,3343	     1354,63	80,4	      1476,8	81,2
     41,3372	     1360,94	80,5	     1386,54	84,8
     41,3402	     1366,12	80,4	     1284,37	78,6
     41,3431	     1368,26	80,6	     1825,32	70,0
      41,346	     1372,21	80,7	     2692,76	79,4
      41,349	     1378,08	80,8	     3433,22	92,6
     41,3519	     1381,59	80,5	     4039,32	106,2
     41,3548	     1386,79	80,7	     4369,98	114,9
     41,3578	      1390,6	80,8	     4591,31	121,5
     41,3607	     1393,48	81,0	     4750,08	126,5
     41,3636	     1400,49	81,0	     4889,09	131,4
     41,3666	     1404,23	80,8	     4975,53	134,5
     41,3695	     1409,79	80,9	     5040,29	137,1
     41,3724	     1414,07	80,9	     5089,23	139,4
     41,3754	     1416,58	81,0	     5130,41	141,1
     41,3783	     1421,99	81,2	     5169,41	143,3
     41,3812	     1428,64	81,2	     5196,49	144,6
     41,3842	     1434,27	81,2	     5220,69	145,8
     41,3871	      1439,7	81,1	     5238,22	146,9
       41,39	     1442,05	81,3	     5253,43	147,9
      41,393	     1447,61	81,4	      5269,7	149,3
     41,3959	     1453,52	81,5	     5281,91	150,1
     41,3988	      1458,9	81,7	     5291,63	150,8
     41,4018	     1463,88	81,4	     5299,52	151,5
     41,4047	     1468,78	81,5	     5309,78	152,1
     41,4076	     1474,84	81,5	     5315,97	152,9
     41,4106	     1478,74	81,7	     5320,81	153,5
     41,4135	     1482,29	82,1	     5325,53	154,2
     41,4164	     1492,31	82,0	      5331,3	154,7
     41,4194	     1495,17	81,8	      5334,9	155,3
     41,4223	     1501,18	82,0	     5335,35	155,7
     41,4252	     1508,37	82,1	     5339,55	156,4
     41,4282	     1511,49	82,1	     5342,24	157,2
     41,4311	     1518,11	82,1	     5346,11	157,8
      41,434	     1525,56	82,3	     5347,73	158,1
      41,437	     1532,63	82,2	     5347,66	158,7
     41,4399	     1534,18	82,3	     5349,83	159,0
     41,4428	      1541,7	82,3	     5349,56	159,2
     41,4457	     1549,18	82,4	     5348,34	159,6
     41,4487	     1555,33	82,6	     5349,02	160,1
     41,4516	     1561,89	82,8	     5347,12	160,6
     41,4545	     1566,86	82,8	      5348,7	161,1
     41,4575	     1573,34	82,9	     5347,99	161,4
     41,4604	     1580,79	82,8	      5348,6	161,5
     41,4633	     1588,28	82,7	     5347,14	162,0
     41,4663	     1592,51	82,9	     5346,63	162,3
     41,4692	     1599,78	83,0	     5344,54	163,0
     41,4721	     1606,56	83,1	     5343,32	163,2
     41,4751	     1613,08	83,1	     5341,29	163,4
      41,478	     1620,37	83,2	     5337,28	163,8
     41,4809	     1626,29	83,1	     5336,81	164,0
     41,4839	     1630,94	83,4	     5334,88	164,4
     41,4868	     1642,36	83,6	     5332,87	164,8
     41,4897	     1649,28	83,6	     5332,01	165,0
     41,4927	     1655,92	83,6	     5328,79	165,5
     41,4956	     1661,59	83,9	     5326,34	165,6
     41,4985	     1668,83	84,0	     5323,21	165,9
     41,5015	     1679,19	83,8	     5322,79	166,1
     41,5044	     1686,83	84,0	     5320,12	166,4
     41,5073	     1693,39	84,0	     5316,36	167,0
     41,5103	        1703	84,3	     5314,26	167,2
     41,5132	     1709,82	84,4	     5313,37	167,5
     41,5161	     1717,55	84,4	     5307,62	167,6
     41,5191	     1724,49	84,7	     5305,35	167,9
      41,522	     1735,96	84,4	      5301,3	168,2
     41,5249	     1742,63	84,5	     5298,88	168,5
     41,5279	     1751,67	84,7	     5297,46	168,6
     41,5308	     1761,07	84,8	     5293,93	169,1
     41,5337	     1771,46	85,1	     5290,21	169,4
     41,5367	      1777,7	85,2	     5287,09	169,7
     41,5396	      1788,4	85,3	     5285,42	169,9
     41,5425	     1797,48	85,5	     5280,93	169,9
     41,5455	     1807,02	85,5	     5277,55	170,2
     41,5484	     1816,87	85,6	     5271,81	170,3
     41,5513	      1827,8	85,5	     5266,95	170,6
     41,5543	     1839,08	85,7	     5262,49	170,9
     41,5572	     1848,63	85,7	     5260,64	171,2
     41,5601	     1858,05	86,0	     5257,71	171,6
      41,563	     1869,76	86,2	     5255,65	171,9
      41,566	     1880,56	86,3	     5254,06	171,9
     41,5689	     1894,01	86,5	     5249,05	172,0
     41,5718	     1904,18	86,6	     5242,23	172,2
     41,5748	     1915,24	86,7	     5237,07	172,5
     41,5777	     1930,46	86,8	     5233,89	172,7
     41,5806	     1942,96	86,9	     5228,33	173,0
     41,5836	     1953,61	87,1	     5226,85	173,2
     41,5865	     1962,63	87,2	      5221,1	173,5
     41,5894	     1977,42	87,6	      5215,7	173,5
     41,5924	     1992,86	87,7	     5214,46	173,7
     41,5953	     2006,56	87,7	     5210,79	174,1
     41,5982	     2019,85	87,9	     5207,45	174,3
     41,6012	     2033,82	88,1	     5201,47	174,5
     41,6041	     2050,15	88,1	        5197	174,5
      41,607	     2066,09	88,3	      5192,5	174,7
       41,61	     2079,01	88,5	     5185,26	174,9
     41,6129	     2095,62	88,8	     5180,92	175,2
     41,6158	     2114,15	89,0	     5177,75	175,3
     41,6188	     2134,99	89,4	      5172,3	175,5
     41,6217	     2151,52	89,4	     5171,11	175,8
     41,6246	     2168,59	89,9	     5167,56	176,0
     41,6276	     2189,68	90,1	     5161,96	176,2
     41,6305	     2212,61	90,2	     5156,77	176,4
     41,6334	     2233,29	90,4	     5153,87	176,8
     41,6364	     2254,39	90,9	      5148,5	176,9
     41,6393	     2277,86	91,1	     5142,98	177,1
     41,6422	     2299,83	91,3	     5138,73	177,1
     41,6452	     2328,28	92,0	     5133,36	177,3
     41,6481	     2354,56	92,3	     5126,27	177,4
      41,651	     2381,71	92,6	     5124,57	177,7
      41,654	     2417,56	93,0	     5120,26	177,9
     41,6569	     2448,51	93,6	     5116,11	178,1
     41,6598	     2484,41	94,1	     5110,52	178,4
     41,6628	     2521,88	94,3	     5104,09	178,6
     41,6657	     2569,12	95,1	     5099,71	178,7
     41,6686	     2611,74	95,8	     5096,71	178,8
     41,6716	     2662,17	96,7	     5090,81	178,8
     41,6745	     2716,47	97,4	     5085,54	179,1
     41,6774	     2787,68	98,8	     5082,05	179,2
     41,6804	        2857	100,0	     5075,91	179,4
     41,6833	      2937,3	101,5	     5070,81	179,6
     41,6862	     3033,73	103,1	     5066,91	180,1
     41,6891	     3140,05	105,4	     5064,44	180,3
     41,6921	     3297,52	108,3	     5058,41	180,4
      41,695	     3456,43	111,8	     5051,99	180,7
     41,6979	     3646,66	116,2	     5048,17	180,7
     41,7009	     3869,65	122,2	     5042,04	180,6
     41,7038	     4200,59	131,8	     5037,85	180,8
     41,7067	     4516,16	142,0	     5034,38	181,1
     41,7097	      4838,4	154,0	     5027,94	181,4
     41,7126	     5065,36	166,4	     5022,02	181,4
     41,7155	     5181,54	176,0	      5016,8	181,5
     41,7185	     5165,08	182,5	     5011,36	181,9
     41,7214	     5105,45	183,9	     5007,99	182,0
     41,7243	     5052,48	183,3	     5002,56	182,1
     41,7273	     5026,58	182,5	      4997,9	182,3
     41,7302	     5018,48	181,9	     4993,41	182,4
     41,7331	     5016,77	181,5	     4988,66	182,6
     41,7361	     5015,31	181,8	     4983,17	182,6
      41,739	     5012,71	182,1	     4977,16	182,8
     41,7419	     5006,16	182,3	     4972,89	183,0
     41,7449	     5001,03	182,5	     4967,69	183,1
     41,7478	     4998,76	182,7	     4960,92	183,3
     41,7507	     4990,39	183,0	     4956,74	183,6
     41,7537	     4982,68	183,1	     4951,36	183,7
     41,7566	     4974,17	183,3	     4946,31	183,9
     41,7595	      4971,2	183,2	     4939,48	183,9
     41,7625	     4965,27	183,6	      4935,2	184,3
     41,7654	     4959,76	183,8	     4931,22	184,1
     41,7683	     4953,62	184,0	     4924,67	184,5
     41,7713	     4948,44	184,1	     4920,48	184,6
     41,7742	     4940,53	184,2	     4914,66	184,8
     41,7771	     4935,06	184,2	     4909,83	184,7
     41,7801	     4930,25	184,3	     4904,05	185,0
      41,783	     4925,56	184,5	     4898,79	185,1
     41,7859	     4920,44	184,8	     4894,11	185,2
     41,7889	     4915,07	184,9	     4890,06	185,5
     41,7918	     4907,35	185,0	     4883,58	185,7
     41,7947	     4901,93	185,3	     4878,86	185,8
     41,7977	     4894,49	185,3	     4873,38	185,7
     41,8006	     4888,97	185,4	     4865,47	186,3
     41,8035	     4884,26	185,5	     4860,88	186,3
     41,8064	     4877,71	186,0	     4856,59	186,5
     41,8094	     4872,75	185,9	     4851,07	186,7
     41,8123	     4866,12	186,0	     4844,84	186,9
     41,8153	     4859,86	186,3	     4840,14	186,7
     41,8182	     4855,07	186,6	     4832,32	186,9
     41,8211	     4850,67	186,7	     4827,67	187,2
      41,824	     4843,49	186,9	      4824,1	187,3
      41,827	     4838,42	186,9	     4818,43	187,3
     41,8299	     4830,05	186,9	     4811,91	187,4
     41,8328	     4824,66	187,3	      4805,1	187,6
     41,8358	     4819,52	187,3	     4801,89	187,7
     41,8387	     4816,01	187,6	     4797,08	187,8
     41,8416	     4807,97	187,5	     4788,44	188,1
     41,8446	     4801,62	187,6	     4783,92	188,4
     41,8475	     4796,18	187,8	     4777,17	188,4
     41,8504	     4790,75	187,9	     4774,09	188,6
     41,8534	     4785,34	188,1	      4770,6	188,6
     41,8563	     4777,75	188,3	     4762,95	188,8
     41,8592	     4771,44	188,3	        4754	189,0
     41,8622	     4766,04	188,4	     4750,79	189,2
     41,8651	     4760,88	188,6	     4745,45	189,3
      41,868	     4755,51	188,6	      4739,4	189,3
      41,871	     4748,54	188,8	     4734,01	189,6
     41,8739	     4742,77	189,2	     4727,99	189,5
     41,8768	     4738,85	189,2	     4722,58	189,7
     41,8798	     4730,96	189,3	     4719,25	189,9
     41,8827	     4725,49	189,6	     4714,21	190,0
     41,8856	     4719,63	189,7	     4705,49	190,0
     41,8886	     4714,33	189,9	     4701,07	190,2
     41,8915	     4708,91	189,9	     4694,79	190,3
     41,8944	     4704,51	190,1	     4688,33	190,2
     41,8974	     4696,62	190,4	     4683,36	190,5
     41,9003	     4688,77	190,5	     4679,44	190,7
     41,9032	     4683,79	190,5	     4673,77	190,7
     41,9062	     4677,21	190,7	     4667,05	190,9
     41,9091	     4672,64	190,8	     4659,24	191,1
      41,912	     4667,08	191,1	      4654,4	191,1
      41,915	     4658,84	191,1	     4649,82	191,3
     41,9179	     4652,94	191,2	     4645,65	191,4
     41,9208	     4648,64	191,2	     4640,86	191,8
     41,9238	     4642,58	191,4	     4633,57	191,8
     41,9267	      4634,3	191,6	      4626,6	192,0
     41,9296	     4629,93	191,6	     4620,99	192,1
     41,9326	     4624,71	191,9	     4614,32	192,3
     41,9355	     4617,63	192,0	     4609,48	192,4
     41,9384	      4612,4	192,0	     4604,25	192,5
     41,9413	     4604,73	192,2	     4598,91	192,6
     41,9443	     4598,65	192,4	     4595,02	192,9
     41,9472	     4593,43	192,3	     4589,66	192,8
     41,9501	     4586,17	192,4	     4581,33	192,9
     41,9531	     4580,02	192,6	     4574,88	193,1
      41,956	     4577,52	192,8	     4570,66	193,2
     41,9589	     4570,14	193,1	     4564,53	193,4
     41,9619	     4562,61	193,0	     4556,71	193,3
     41,9648	     4555,88	193,1	      4551,1	193,5
     41,9677	      4551,6	193,3	     4547,04	193,5
     41,9707	      4546,1	193,5	     4540,54	193,8
     41,9736	     4541,35	193,7	     4534,63	193,9
     41,9765	     4532,45	193,7	     4528,33	194,2
     41,9795	     4525,42	193,6	      4522,4	194,1
     41,9824	     4520,44	193,9	     4517,04	194,2
     41,9853	     4514,67	194,2	     4512,69	194,3
     41,9883	     4509,55	194,1	     4506,41	194,5
     41,9912	      4505,1	194,4	     4500,09	194,5
     41,9941	     4496,49	194,3	     4495,27	194,5
     41,9971	     4489,25	194,4	     4488,08	194,9
          42	     4486,05	194,6	     4485,25	194,9
     42,0029	     4477,43	194,7	     4478,88	195,2
     42,0059	     4473,84	194,8	     4472,18	195,0
     42,0088	      4468,1	195,1	     4466,49	195,3
     42,0117	     4459,12	195,2	     4459,04	195,3
     42,0147	     4455,15	195,3	     4451,51	195,5
     42,0176	     4448,49	195,2	     4448,79	195,7
     42,0205	     4441,59	195,5	     4444,32	195,7
     42,0235	     4436,53	195,5	     4437,81	195,9
     42,0264	     4430,05	195,7	     4431,71	196,0
     42,0293	     4424,12	195,9	     4425,42	196,1
     42,0323	     4419,58	196,0	     4418,55	196,1
     42,0352	     4412,53	196,0	     4414,12	196,2
     42,0381	     4402,94	196,1	      4408,1	196,5
     42,0411	     4398,48	196,2	      4400,4	196,6
      42,044	     4391,63	196,4	     4395,37	196,5
     42,0469	      4388,3	196,5	     4387,83	196,9
     42,0499	     4383,01	196,7	     4384,72	196,9
     42,0528	      4376,1	196,8	     4379,25	197,0
     42,0557	     4370,84	197,0	     4371,33	197,1
     42,0587	     4362,66	197,0	     4364,93	197,1
     42,0616	     4355,16	197,2	     4360,18	197,3
     42,0645	      4350,1	197,4	     4352,53	197,4
     42,0674	     4344,59	197,4	      4348,7	197,6
     42,0704	      4339,7	197,4	     4343,07	197,6
     42,0733	     4334,73	197,4	     4335,55	197,7
     42,0762	     4327,76	197,8	      4331,3	197,9
     42,0792	     4319,63	197,7	     4324,34	198,2
     42,0821	     4314,19	197,9	      4318,8	198,1
      42,085	     4307,79	198,1	     4313,44	198,2
      42,088	     4301,91	198,0	     4306,29	198,4
     42,0909	      4295,2	198,1	     4302,75	198,4
     42,0938	     4289,92	198,1	     4296,95	198,7
     42,0968	     4283,58	198,3	     4290,94	198,6
     42,0997	     4276,74	198,5	     4284,98	198,7
     42,1026	     4272,43	198,4	     4277,02	198,8
     42,1056	     4265,99	198,6	     4272,14	199,1
     42,1085	     4258,52	198,7	     4267,73	199,2
     42,1114	     4252,45	198,7	     4262,12	199,2
     42,1144	     4247,28	199,0	     4254,67	199,4
     42,1173	     4242,34	199,0	     4248,84	199,5
     42,1202	     4235,37	199,2	     4243,71	199,9
     42,1232	     4228,45	199,3	     4235,34	199,7
     42,1261	     4222,96	199,4	     4230,94	199,9
      42,129	     4216,19	199,5	     4224,29	-160,0
      42,132	     4211,53	199,7	     4220,77	-159,8
     42,1349	     4203,65	199,6	     4213,32	-159,8
     42,1378	     4198,02	199,9	     4206,97	-159,7
     42,1408	     4192,42	-159,7	      4201,7	-159,7
     42,1437	     4186,07	-159,6	     4195,62	-159,5
     42,1466	     4179,31	-159,8	     4192,32	-159,4
     42,1496	     4176,26	-159,7	     4182,46	-159,3
     42,1525	     4169,05	-159,3	     4175,58	-159,0
     42,1554	     4162,77	-159,4	     4171,79	-158,9
     42,1584	     4155,38	-159,3	     4164,73	-158,7
     42,1613	      4148,9	-159,2	     4160,57	-158,8
     42,1642	     4143,39	-159,0	     4155,84	-158,5
     42,1672	     4136,76	-158,9	      4146,8	-158,7
     42,1701	     4132,06	-158,9	     4142,46	-158,6
      42,173	     4126,03	-158,7	     4136,45	-158,3
      42,176	     4118,76	-158,8	      4130,5	-158,3
     42,1789	      4111,7	-158,5	     4124,43	-158,3
     42,1818	     4106,82	-158,4	     4117,31	-158,2
     42,1847	     4100,73	-158,3	     4111,12	-158,2
     42,1877	     4095,67	-158,5	     4107,04	-157,9
     42,1906	     4088,08	-158,4	     4100,18	-157,8
     42,1936	      4081,9	-158,3	     4096,29	-157,8
     42,1965	     4077,21	-158,0	     4088,24	-157,8
     42,1994	      4070,5	-157,9	     4080,96	-157,5
     42,2023	     4064,45	-157,7	     4077,49	-157,6
     42,2053	     4056,21	-157,7	     4070,22	-157,4
     42,2082	     4051,69	-157,7	     4064,96	-157,1
     42,2111	     4046,86	-157,4	     4058,46	-157,2
     42,2141	     4041,28	-157,1	     4051,99	-157,0
      42,217	     4033,47	-157,1	     4049,71	-156,9
     42,2199	      4028,3	-157,2	     4039,31	-156,8
     42,2229	      4021,1	-156,9	     4034,07	-156,6
     42,2258	     4014,78	-156,8	      4028,9	-156,6
     42,2287	     4007,99	-156,8	     4021,15	-156,3
     42,2317	     4002,71	-156,8	     4016,97	-156,4
     42,2346	     3999,46	-156,8	      4011,9	-156,2
     42,2375	     3990,66	-156,4	      4004,8	-156,0
     42,2405	     3984,72	-156,6	     3999,19	-156,0
     42,2434	     3979,33	-156,5	     3992,74	-156,0
     42,2463	     3973,57	-156,3	     3989,91	-156,0
     42,2493	     3967,74	-156,1	     3982,03	-155,7
     42,2522	     3958,74	-156,1	     3974,54	-155,5
     42,2551	     3952,82	-156,0	     3968,85	-155,7
     42,2581	     3949,55	-155,7	     3963,38	-155,5
      42,261	     3941,08	-155,8	     3958,08	-155,4
     42,2639	     3933,94	-155,5	     3949,47	-155,4
     42,2669	     3930,89	-155,4	     3945,09	-155,2
     42,2698	      3922,8	-155,4	     3939,51	-155,1
     42,2727	     3916,77	-155,2	     3932,36	-155,0
     42,2757	     3912,48	-155,1	     3926,05	-155,0
     42,2786	     3904,61	-155,2	     3920,52	-154,8
     42,2815	     3897,91	-155,1	     3916,23	-154,6
     42,2845	     3893,13	-155,0	     3911,29	-154,5
     42,2874	     3888,69	-155,0	     3902,96	-154,5
     42,2903	     3879,89	-154,8	     3898,66	-154,3
     42,2933	      3874,5	-154,9	     3891,77	-154,1
     42,2962	     3868,38	-154,6	     3887,38	-154,2
     42,2991	     3864,35	-154,3	     3879,17	-154,2
     42,3021	     3857,72	-154,4	     3872,36	-153,8
      42,305	     3849,49	-154,1	     3868,73	-154,1
     42,3079	     3844,17	-154,0	     3861,84	-153,9
     42,3109	     3838,94	-153,9	     3855,62	-153,8
     42,3138	     3830,64	-153,9	     3850,11	-153,5
     42,3167	     3824,33	-153,9	     3844,65	-153,6
     42,3196	     3819,34	-153,9	     3838,04	-153,5
     42,3226	     3814,55	-153,8	     3832,56	-153,3
     42,3255	     3808,41	-153,7	     3825,18	-153,3
     42,3284	     3802,88	-153,7	      3817,5	-153,0
     42,3314	      3794,6	-153,3	      3815,3	-153,0
     42,3343	     3790,68	-153,2	     3810,35	-152,9
     42,3372	     3784,13	-153,4	     3803,61	-152,7
     42,3402	     3775,49	-153,1	     3794,91	-152,8
     42,3431	     3769,97	-152,9	     3789,55	-152,7
      42,346	     3765,15	-152,9	     3785,88	-152,8
      42,349	     3760,78	-152,9	     3778,66	-152,4
     42,3519	      3752,8	-152,6	     3773,55	-152,4
     42,3548	     3747,19	-152,6	     3768,05	-152,4
     42,3578	     3740,01	-152,6	     3763,14	-152,1
     42,3607	     3733,61	-152,4	     3754,94	-152,2
     42,3636	     3729,47	-152,4	     3748,27	-151,9
     42,3666	     3721,14	-152,4	     3744,43	-151,7
     42,3695	     3716,11	-152,3	     3738,14	-151,6
     42,3724	        3709	-151,9	     3731,36	-151,6
     42,3754	     3704,45	-151,9	     3726,34	-151,5
     42,3783	     3697,35	-151,8	     3719,86	-151,5
     42,3812	     3691,87	-151,7	     3714,89	-151,7
     42,3842	     3686,87	-151,7	     3708,27	-151,3
     42,3871	     3680,41	-151,7	      3703,6	-151,3
       42,39	     3675,38	-151,8	     3695,76	-151,3
      42,393	     3666,89	-151,4	     3691,98	-151,2
     42,3959	     3661,51	-151,6	     3685,99	-150,9
     42,3988	     3655,48	-151,3	     3678,88	-150,9
     42,4018	     3651,57	-151,2	     3673,38	-150,8
     42,4047	     3645,17	-151,0	      3667,4	-150,6
     42,4076	     3637,33	-150,9	        3662	-150,5
     42,4106	     3633,07	-150,6	     3654,78	-150,5
     42,4135	     3625,39	-150,8	     3649,66	-150,4
     42,4164	     3619,68	-150,7	     3643,24	-150,4
     42,4194	     3611,75	-150,7	     3639,13	-150,3
     42,4223	     3607,69	-150,6	     3633,02	-150,2
     42,4252	     3602,94	-150,5	     3624,75	-150,2
     42,4282	     3597,22	-150,4	     3619,35	-150,0
     42,4311	        3590	-150,2	      3613,5	-149,8
      42,434	      3583,8	-150,1	     3608,09	-149,7
      42,437	     3576,31	-149,9	     3602,71	-149,5
     42,4399	     3569,81	-149,8	     3598,12	-149,5
     42,4428	     3566,19	-149,8	     3589,44	-149,4
     42,4457	     3559,06	-149,9	     3587,08	-149,5
     42,4487	     3554,14	-149,8	     3577,98	-149,4
     42,4516	     3547,63	-149,8	     3571,58	-149,4
     42,4545	     3542,23	-149,6	     3566,58	-149,2
     42,4575	     3535,94	-149,5	     3561,16	-149,1
     42,4604	     3529,65	-149,2	        3556	-149,0
     42,4633	      3523,1	-149,1	     3549,75	-148,7
     42,4663	     3518,35	-149,1	      3541,8	-148,7
     42,4692	     3511,97	-149,1	     3535,96	-148,5
     42,4721	     3505,76	-149,0	      3532,1	-148,5
     42,4751	     3498,34	-148,8	     3525,49	-148,6
      42,478	     3492,69	-149,1	     3522,46	-148,5
     42,4809	        3490	-148,6	     3512,82	-148,4
     42,4839	     3481,29	-148,7	     3507,55	-148,3
     42,4868	     3476,47	-148,5	     3503,75	-148,3
     42,4897	     3469,81	-148,4	     3497,11	-148,0
     42,4927	     3464,45	-148,4	     3490,57	-147,9
     42,4956	     3457,26	-148,2	     3486,35	-147,8
     42,4985	     3452,34	-148,3	        3479	-147,8
     42,5015	     3444,35	-148,2	     3472,09	-147,7
     42,5044	      3441,7	-148,1	     3466,66	-147,9
     42,5073	      3434,6	-148,0	     3460,74	-147,6
     42,5103	     3427,25	-147,8	     3456,67	-147,5
     42,5132	     3422,33	-147,6	     3450,76	-147,4
     42,5161	     3416,73	-147,8	     3443,55	-147,3
     42,5191	     3408,15	-147,7	     3439,13	-147,2
      42,522	     3404,16	-147,6	     3432,76	-146,9
     42,5249	     3399,64	-147,4	     3426,93	-147,1
     42,5279	     3394,14	-147,4	     3423,14	-147,0
     42,5308	     3384,72	-147,0	      3415,9	-147,0
     42,5337	     3378,24	-147,2	     3407,98	-146,8
     42,5367	     3374,96	-147,0	      3404,8	-146,8
     42,5396	     3369,19	-146,9	     3400,12	-146,7
     42,5425	     3364,26	-146,9	        3392	-146,5
     42,5455	     3358,02	-147,0	      3383,9	-146,4
     42,5484	     3352,15	-146,9	     3381,41	-146,4
     42,5513	      3343,3	-146,7	     3375,45	-146,3
     42,5543	     3338,58	-146,5	     3368,81	-146,5
     42,5572	     3333,79	-146,4	     3362,26	-146,1
     42,5601	     3326,69	-146,6	     3359,04	-146,1
      42,563	     3320,71	-146,2	     3352,31	-146,0
      42,566	     3316,92	-146,4	     3347,59	-145,8
     42,5689	     3309,58	-146,4	     3340,61	-145,7
     42,5718	     3303,71	-146,1	     3334,46	-145,5
     42,5748	     3299,12	-145,8	     3327,63	-145,7
     42,5777	     3291,39	-145,9	     3324,97	-145,6
     42,5806	     3286,57	-145,6	     3317,71	-145,6
     42,5836	     3280,54	-145,9	     3313,93	-145,4
     42,5865	     3274,73	-145,7	      3304,8	-145,4
     42,5894	     3267,17	-145,7	     3301,33	-145,1
     42,5924	     3263,43	-145,6	     3295,15	-145,0
     42,5953	     3257,51	-145,4	     3290,25	-145,2
     42,5982	     3250,78	-145,1	     3283,98	-145,1
     42,6012	     3245,28	-145,3	     3276,98	-145,0
     42,6041	     3238,93	-145,2	     3271,08	-144,9
      42,607	     3233,75	-145,2	     3266,53	-144,6
       42,61	     3225,96	-145,2	     3262,82	-144,7
     42,6129	     3221,21	-145,0	     3254,79	-144,4
     42,6158	     3215,97	-144,7	     3248,11	-144,4
     42,6188	      3210,4	-144,7	      3242,5	-144,4
     42,6217	     3204,63	-144,6	        3241	-144,5
     42,6246	     3199,54	-144,7	     3232,36	-144,4
     42,6276	     3192,48	-144,7	     3225,09	-144,3
     42,6305	     3187,37	-144,6	     3221,19	-143,9
     42,6334	      3180,5	-144,3	     3215,61	-144,0
     42,6364	     3177,01	-144,2	     3209,33	-143,6
     42,6393	     3169,12	-144,3	     3203,53	-144,0
     42,6422	     3163,43	-144,2	     3197,86	-143,9
     42,6452	     3158,52	-144,1	     3191,84	-143,8
     42,6481	     3153,97	-144,1	     3187,38	-143,5
      42,651	     3148,03	-143,9	     3182,17	-143,6
      42,654	     3142,42	-143,5	     3176,89	-143,3
     42,6569	     3134,05	-143,8	     3168,99	-143,4
     42,6598	     3129,72	-143,8	     3163,46	-143,4
     42,6628	     3123,37	-143,6	     3158,43	-143,3
     42,6657	      3119,7	-143,5	     3151,77	-143,2
     42,6686	     3111,48	-143,6	     3145,64	-143,1
     42,6716	     3106,07	-143,2	     3142,45	-142,8
     42,6745	     3101,57	-143,2	     3134,96	-142,8
     42,6774	     3095,14	-143,2	     3130,68	-142,7
     42,6804	     3090,93	-143,3	     3123,71	-142,9
     42,6833	     3084,48	-143,0	     3117,55	-142,9
     42,6862	     3076,24	-143,1	     3112,38	-142,4
     42,6891	     3072,23	-142,8	     3106,25	-142,4
     42,6921	     3066,71	-142,8	     3100,96	-142,2
      42,695	     3059,29	-142,7	     3097,39	-142,3
     42,6979	     3057,07	-142,7	     3091,16	-142,3
     42,7009	     3047,41	-142,6	     3085,43	-142,3
     42,7038	      3042,7	-142,7	     3076,59	-142,2
     42,7067	     3038,77	-142,3	     3073,85	-142,0
     42,7097	     3035,24	-142,3	     3067,29	-141,9
     42,7126	     3025,79	-142,2	     3061,95	-142,1
     42,7155	     3022,32	-142,4	     3055,39	-141,9
     42,7185	     3016,46	-142,1	     3051,64	-141,9
     42,7214	     3011,28	-142,0	     3044,02	-141,7
     42,7243	     3003,95	-142,0	     3040,34	-141,5
     42,7273	     2998,67	-141,9	     3032,01	-141,5
     42,7302	     2992,72	-141,8	     3028,58	-141,3
     42,7331	     2987,14	-141,9	        3023	-141,4
     42,7361	     2982,41	-141,6	     3018,27	-141,5
      42,739	     2977,85	-141,6	      3008,8	-141,3
     42,7419	     2972,66	-141,3	     3008,08	-141,1
     42,7449	     2965,57	-141,5	     3002,33	-140,9
     42,7478	     2960,73	-141,5	     2996,47	-141,1
     42,7507	     2954,52	-141,4	     2989,79	-141,1
     42,7537	     2950,16	-141,3	     2984,53	-140,8
     42,7566	     2943,07	-141,0	     2977,64	-140,7
     42,7595	      2937,3	-141,0	     2972,24	-140,6
     42,7625	     2930,78	-141,2	     2968,16	-140,7
     42,7654	     2927,17	-141,0	     2962,27	-140,7
     42,7683	     2921,27	-141,0	     2954,35	-140,6
     42,7713	     2917,27	-140,7	     2949,59	-140,5
     42,7742	     2910,47	-140,7	     2947,44	-140,3
     42,7771	     2905,01	-140,8	      2939,4	-140,1
     42,7801	     2897,27	-140,7	     2934,32	-140,1
      42,783	     2893,54	-140,7	     2927,87	-140,2
     42,7859	     2888,85	-140,4	     2923,53	-140,1
     42,7889	     2884,21	-140,3	      2919,2	-140,0
     42,7918	     2876,83	-140,1	      2912,9	-139,9
     42,7947	      2870,4	-140,3	     2906,65	-139,6
     42,7977	     2867,49	-140,4	     2901,23	-140,0
     42,8006	     2860,59	-139,9	     2895,85	-139,7
     42,8035	     2856,55	-139,9	      2889,7	-139,7
     42,8064	     2849,55	-139,9	     2885,85	-139,5
     42,8094	     2845,03	-140,0	     2878,85	-139,4
     42,8123	      2839,4	-139,9	     2874,48	-139,6
     42,8153	     2832,38	-139,9	     2868,27	-139,4
     42,8182	     2828,03	-139,6	     2864,35	-139,3
     42,8211	     2823,34	-139,6	     2855,73	-139,2
      42,824	     2817,67	-139,7	     2853,45	-139,2
      42,827	      2811,6	-139,4	     2848,81	-139,2
     42,8299	     2807,45	-139,4	     2839,99	-139,1
     42,8328	     2802,22	-139,2	     2833,85	-139,1
     42,8358	      2796,1	-139,3	     2831,66	-138,9
     42,8387	     2789,55	-139,2	     2826,33	-138,7
     42,8416	     2786,15	-139,2	     2818,89	-138,8
     42,8446	     2780,29	-139,0	     2814,85	-138,8
     42,8475	     2775,42	-139,0	     2809,31	-138,7
     42,8504	     2770,68	-139,1	     2805,78	-138,6
     42,8534	     2763,87	-138,9	     2798,57	-138,3
     42,8563	     2759,34	-138,8	     2792,29	-138,6
     42,8592	     2753,07	-138,6	     2789,92	-138,4
     42,8622	     2747,79	-138,6	     2782,37	-138,4
     42,8651	     2743,68	-138,5	     2778,09	-138,1
      42,868	     2738,71	-138,5	     2770,98	-138,2
      42,871	     2734,39	-138,3	     2766,38	-138,3
     42,8739	     2727,91	-138,3	     2759,52	-138,2
     42,8768	      2723,4	-138,2	     2756,21	-138,0
     42,8798	     2716,72	-138,3	      2750,7	-137,7
     42,8827	     2712,97	-138,2	     2746,15	-137,8
     42,8856	     2708,08	-137,8	      2739,3	-137,7
     42,8886	     2701,96	-138,1	     2733,99	-137,8
     42,8915	     2694,66	-137,8	     2731,61	-137,6
     42,8944	     2689,76	-137,9	     2723,03	-137,5
     42,8974	     2688,61	-137,8	     2719,19	-137,6
     42,9003	     2679,82	-137,6	     2712,43	-137,5
     42,9032	     2674,09	-137,6	     2706,84	-137,6
     42,9062	      2668,9	-137,7	     2703,72	-137,1
     42,9091	     2665,14	-137,6	     2699,92	-137,2
      42,912	     2662,41	-137,3	     2693,61	-137,4
      42,915	     2652,28	-137,2	     2685,35	-137,2
     42,9179	      2648,8	-137,4	     2683,32	-137,1
     42,9208	      2642,8	-137,4	     2679,05	-136,9
     42,9238	      2638,3	-137,2	     2670,74	-136,8
     42,9267	      2631,3	-137,0	     2664,38	-136,8
     42,9296	     2627,84	-137,1	     2660,67	-136,9
     42,9326	        2624	-137,2	     2656,63	-136,7
     42,9355	     2617,58	-136,8	     2651,56	-136,6
     42,9384	     2610,86	-136,8	     2645,49	-136,9
     42,9413	     2606,78	-136,7	     2638,36	-136,6
     42,9443	     2603,12	-136,8	     2634,96	-136,7
     42,9472	     2596,28	-136,7	      2628,7	-136,2
     42,9501	     2591,39	-136,5	     2623,24	-136,5
     42,9531	     2586,48	-136,5	     2619,08	-136,3
      42,956	     2581,71	-136,5	      2613,8	-136,4
     42,9589	     2577,33	-136,4	     2609,78	-136,3
     42,9619	     2569,93	-136,4	        2605	-136,0
     42,9648	     2567,12	-136,2	      2598,6	-135,9
     42,9677	     2562,83	-136,2	     2592,25	-136,1
     42,9707	     2556,21	-136,4	     2587,13	-136,0
     42,9736	     2552,27	-136,3	     2584,08	-135,8
     42,9765	        2546	-135,9	     2576,85	-135,9
     42,9795	     2542,36	-135,9	     2571,85	-135,8
     42,9824	     2536,82	-136,1	     2565,62	-135,9
     42,9853	     2531,39	-135,8	        2563	-135,5
     42,9883	     2527,32	-135,8	     2558,22	-135,6
     42,9912	      2520,3	-135,7	     2550,76	-135,7
     42,9941	     2516,23	-135,8	     2545,95	-135,6
     42,9971	     2512,19	-135,8	      2539,7	-135,3
          43	     2505,09	-135,4	     2536,61	-135,3
     43,0029	     2502,57	-135,5	     2532,14	-135,5
     43,0059	     2495,03	-135,6	      2524,9	-135,4
     43,0088	     2492,49	-135,4	     2521,31	-135,3
     43,0117	     2485,87	-135,2	     2515,01	-135,0
     43,0147	     2480,99	-135,4	     2510,37	-135,3
     43,0176	     2477,04	-135,3	     2505,63	-135,1
     43,0205	     2471,62	-135,1	     2499,98	-135,0
     43,0235	     2466,49	-134,9	     2496,81	-134,8
     43,0264	     2462,25	-135,2	      2488,9	-134,7
     43,0293	     2456,86	-134,9	     2486,19	-134,9
     43,0323	     2451,59	-135,1	     2479,52	-134,9
     43,0352	     2447,06	-134,8	     2475,01	-134,7
     43,0381	     2443,16	-134,8	     2470,61	-134,6
     43,0411	      2436,2	-134,8	     2464,97	-134,6
      43,044	      2432,9	-134,7	     2459,85	-134,6
     43,0469	     2429,84	-134,6	     2454,29	-134,4
     43,0499	     2423,45	-134,6	     2450,02	-134,3
     43,0528	     2417,19	-134,5	      2445,2	-134,5
     43,0557	     2412,86	-134,7	     2437,64	-134,5
     43,0587	     2407,52	-134,2	     2433,35	-134,3
     43,0616	     2404,26	-134,3	     2428,26	-133,9
     43,0645	     2399,82	-134,4	     2424,61	-134,1
     43,0674	      2393,5	-134,3	     2420,36	-134,1
     43,0704	     2387,75	-134,1	     2413,27	-134,0
     43,0733	     2383,33	-134,2	     2409,27	-133,8
     43,0762	     2380,31	-134,1	     2403,97	-134,0
     43,0792	     2374,89	-133,9	     2398,97	-133,9
     43,0821	     2369,85	-133,7	     2395,39	-133,7
      43,085	     2364,94	-134,0	      2390,1	-133,7
      43,088	     2360,22	-133,8	     2385,62	-133,7
     43,0909	     2356,66	-133,7	     2379,33	-133,6
     43,0938	     2350,04	-133,7	     2373,19	-133,4
     43,0968	     2342,62	-133,8	        2369	-133,7
     43,0997	      2341,8	-133,6	     2365,51	-133,5
     43,1026	     2336,69	-133,6	     2359,88	-133,5
     43,1056	      2330,5	-133,4	     2353,15	-133,2
     43,1085	     2327,27	-133,6	     2348,77	-133,3
     43,1114	     2323,43	-133,4	     2345,11	-133,4
     43,1144	     2317,49	-133,1	     2339,54	-133,2
     43,1173	     2313,01	-133,4	     2335,66	-133,1
     43,1202	     2306,45	-133,3	     2332,34	-133,2
     43,1232	     2305,76	-133,0	     2323,03	-133,2
     43,1261	     2298,99	-133,2	      2321,1	-133,0
      43,129	     2294,92	-133,2	     2317,45	-132,7
      43,132	     2290,33	-133,1	     2312,74	-132,9
     43,1349	     2285,02	-132,7	     2307,59	-133,0
     43,1378	     2281,11	-133,0	     2299,54	-132,7
     43,1408	     2276,94	-132,9	     2295,32	-132,6
     43,1437	     2268,82	-132,8	     2291,89	-132,7
     43,1466	     2266,28	-132,6	     2287,31	-132,6
     43,1496	     2262,62	-132,8	     2282,44	-132,5
     43,1525	     2257,71	-132,5	     2276,92	-132,4
     43,1554	     2253,57	-132,5	     2271,53	-132,6
     43,1584	     2247,02	-132,4	     2267,38	-132,4
     43,1613	     2245,08	-132,5	     2264,14	-132,2
     43,1642	     2240,48	-132,3	     2259,65	-132,4
     43,1672	     2234,68	-132,3	     2253,66	-132,3
     43,1701	     2230,52	-132,3	     2247,37	-132,2
      43,173	     2223,64	-132,5	     2245,91	-132,2
      43,176	     2220,07	-132,2	     2240,83	-132,2
     43,1789	     2216,87	-132,2	     2234,99	-132,2
     43,1818	     2211,88	-132,3	     2232,07	-132,0
     43,1847	     2207,46	-132,0	     2224,24	-131,9
     43,1877	     2203,11	-131,9	     2220,96	-132,1
     43,1906	     2197,51	-132,1	     2218,17	-131,9
     43,1936	     2194,26	-131,8	     2211,11	-131,7
     43,1965	     2189,47	-131,9	      2206,7	-131,9
     43,1994	        2185	-131,8	     2204,01	-131,8
     43,2023	     2178,97	-131,8	     2198,84	-131,7
     43,2053	     2176,31	-131,6	      2193,5	-131,6
     43,2082	     2169,95	-131,8	      2188,1	-131,6
     43,2111	     2165,97	-131,7	      2185,5	-131,4
     43,2141	     2161,34	-131,7	     2180,94	-131,6
      43,217	     2157,24	-131,4	     2172,22	-131,5
     43,2199	     2153,07	-131,7	     2170,77	-131,4
     43,2229	     2146,99	-131,6	     2168,18	-131,2
     43,2258	     2144,81	-131,1	     2162,03	-131,4
     43,2287	     2139,93	-131,2	     2156,43	-131,3
     43,2317	     2133,97	-131,4	     2152,54	-131,2
     43,2346	     2129,79	-131,1	     2147,22	-131,1
     43,2375	      2126,2	-131,1	     2142,66	-131,4
     43,2405	     2121,92	-131,3	     2140,44	-131,0
     43,2434	     2117,51	-130,9	     2135,13	-130,9
     43,2463	     2114,57	-131,1	     2130,38	-131,1
     43,2493	     2106,67	-131,0	     2125,61	-130,9
     43,2522	     2105,19	-130,9	     2121,62	-130,7
     43,2551	     2099,82	-130,8	     2116,61	-131,1
     43,2581	     2095,51	-131,1	     2108,72	-130,9
      43,261	     2090,01	-130,9	     2108,37	-130,8
     43,2639	     2087,57	-130,6	     2103,84	-130,7
     43,2669	     2082,42	-130,7	     2098,11	-130,7
     43,2698	     2075,31	-130,7	     2093,14	-130,5
     43,2727	     2075,36	-130,5	     2089,72	-130,5
     43,2757	     2067,98	-130,6	     2084,38	-130,5
     43,2786	     2065,17	-130,6	     2080,18	-130,5
     43,2815	     2061,83	-130,4	      2076,8	-130,5
     43,2845	     2056,38	-130,4	     2071,07	-130,3
     43,2874	     2052,53	-130,4	     2066,24	-130,6
     43,2903	     2047,01	-130,3	     2064,35	-130,3
     43,2933	     2043,14	-130,4	     2057,45	-130,2
     43,2962	     2038,53	-130,3	      2054,1	-130,4
     43,2991	     2035,78	-130,4	     2050,89	-130,2
     43,3021	     2030,56	-130,1	     2044,24	-129,9
      43,305	     2025,52	-130,1	     2042,28	-130,3
     43,3079	     2022,38	-130,0	     2038,46	-130,0
     43,3109	     2018,86	-130,1	     2032,65	-130,0
     43,3138	     2015,42	-129,9	     2027,16	-130,0
     43,3167	     2008,78	-130,0	     2026,83	-129,9
     43,3196	     2006,04	-130,0	     2020,17	-129,8
     43,3226	     2001,05	-130,0	     2015,08	-130,0
     43,3255	     1996,96	-129,7	     2012,52	-129,8
     43,3284	     1992,18	-129,7	     2007,57	-129,7
     43,3314	     1987,76	-129,7	     2002,68	-129,7
     43,3343	     1986,24	-129,7	     1998,41	-129,6
     43,3372	     1982,14	-129,6	     1994,19	-129,5
     43,3402	     1975,76	-129,6	     1991,16	-129,4
     43,3431	     1972,25	-129,7	     1987,11	-129,6
      43,346	     1968,91	-129,5	     1980,99	-129,3
      43,349	     1963,29	-129,5	     1977,65	-129,7
     43,3519	     1959,01	-129,4	     1975,68	-129,5
     43,3548	     1955,87	-129,5	     1968,18	-129,3
     43,3578	     1949,61	-129,4	     1966,91	-129,3
     43,3607	     1950,34	-129,4	     1962,02	-129,5
     43,3636	     1945,32	-129,2	     1957,47	-129,2
     43,3666	     1939,24	-129,4	     1950,76	-129,3
     43,3695	      1935,5	-129,4	     1950,41	-129,3
     43,3724	     1932,55	-129,0	     1944,92	-129,1
     43,3754	      1926,6	-129,2	     1940,18	-129,0
     43,3783	     1922,72	-129,0	     1936,78	-129,2
     43,3812	     1921,53	-129,0	     1931,92	-128,9
     43,3842	     1915,18	-129,1	     1927,04	-128,8
     43,3871	     1910,74	-128,8	     1924,22	-129,0
       43,39	      1907,5	-128,9	     1923,33	-128,8
      43,393	     1903,28	-129,1	     1917,37	-129,0
     43,3959	     1900,02	-128,8	     1913,58	-129,1
     43,3988	      1895,1	-128,8	     1909,07	-128,7
     43,4018	     1891,28	-128,9	     1904,84	-128,8
     43,4047	     1887,79	-128,6	     1901,22	-128,7
     43,4076	     1884,26	-128,6	     1898,57	-128,6
     43,4106	     1879,35	-128,8	     1891,87	-128,6
     43,4135	     1876,09	-128,6	     1887,46	-128,6
     43,4164	     1871,41	-128,6	     1886,57	-128,4
     43,4194	     1868,79	-128,6	     1882,88	-128,7
     43,4223	     1865,11	-128,5	     1875,49	-128,7
     43,4252	     1859,98	-128,6	     1872,32	-128,5
     43,4282	     1855,96	-128,4	     1869,61	-128,4
     43,4311	     1853,33	-128,4	     1865,14	-128,3
      43,434	     1849,77	-128,5	     1860,76	-128,3
      43,437	     1844,95	-128,2	     1857,39	-128,6
     43,4399	     1842,13	-128,4	     1854,09	-128,1
     43,4428	     1837,31	-128,3	     1849,51	-128,4
     43,4457	     1833,03	-128,2	     1844,83	-128,3
     43,4487	     1830,32	-128,1	     1842,15	-128,1
     43,4516	     1828,42	-128,1	     1837,58	-128,0
     43,4545	     1820,33	-127,9	     1833,68	-128,3
     43,4575	     1816,54	-128,1	     1830,93	-128,0
     43,4604	     1815,84	-128,1	     1827,36	-127,9
     43,4633	     1813,73	-128,0	     1822,39	-128,2
     43,4663	     1806,27	-127,9	     1819,18	-127,8
     43,4692	     1803,09	-128,0	     1816,54	-128,1
     43,4721	     1800,81	-128,0	     1810,27	-127,8
     43,4751	     1797,44	-127,9	     1807,63	-127,7
      43,478	     1792,49	-127,7	      1805,1	-127,9
     43,4809	     1789,94	-127,8	     1798,65	-127,7
     43,4839	     1785,06	-127,9	      1796,7	-127,7
     43,4868	      1781,1	-127,6	     1792,24	-127,9
     43,4897	     1778,61	-127,5	      1789,9	-127,5
     43,4927	     1774,71	-127,8	     1782,64	-127,8
     43,4956	     1770,59	-127,6	     1780,38	-127,6
     43,4985	      1764,5	-127,6	      1779,1	-127,5
     43,5015	     1763,37	-127,6	     1772,66	-127,5
     43,5044	     1758,73	-127,4	     1769,65	-127,5
     43,5073	     1755,03	-127,6	     1767,36	-127,5
     43,5103	     1751,63	-127,1	     1763,35	-127,5
     43,5132	     1747,19	-127,4	     1758,89	-127,2
     43,5161	     1743,53	-127,6	     1755,43	-127,4
     43,5191	     1740,25	-127,2	     1750,58	-127,5
      43,522	      1737,4	-127,3	      1748,7	-127,1
     43,5249	     1734,46	-127,1	     1744,43	-127,4
     43,5279	     1730,96	-127,3	     1740,26	-127,4
     43,5308	     1725,23	-127,2	     1737,26	-127,2
     43,5337	     1724,42	-127,1	     1734,58	-127,1
     43,5367	     1721,52	-127,3	     1729,46	-127,3
     43,5396	     1715,23	-127,0	     1725,86	-127,2
     43,5425	     1711,53	-126,9	     1721,48	-127,0
     43,5455	     1711,26	-127,2	     1720,48	-127,0
     43,5484	     1705,76	-126,9	     1713,88	-127,1
     43,5513	     1700,61	-126,9	     1713,83	-127,0
     43,5543	     1697,83	-126,9	     1710,09	-126,9
     43,5572	     1695,18	-126,8	     1704,29	-127,0
     43,5601	     1691,97	-126,9	     1702,08	-126,9
      43,563	     1688,29	-126,6	     1697,95	-127,0
      43,566	     1685,41	-126,8	     1696,37	-126,6
     43,5689	      1681,8	-127,0	     1689,79	-126,8
     43,5718	     1677,13	-126,6	     1688,01	-126,9
     43,5748	     1674,15	-126,8	     1686,28	-126,8
     43,5777	      1672,6	-126,6	     1680,49	-126,7
     43,5806	     1667,28	-126,6	        1676	-126,8
     43,5836	     1663,61	-126,7	     1673,37	-126,5
     43,5865	     1660,67	-126,3	     1672,57	-126,7
     43,5894	     1659,43	-126,6	     1666,74	-126,5
     43,5924	     1655,28	-126,4	     1663,69	-126,4
     43,5953	     1648,64	-126,4	     1659,58	-126,8
     43,5982	      1646,9	-126,5	     1657,29	-126,4
     43,6012	     1645,02	-126,4	     1652,03	-126,6
     43,6041	     1641,74	-126,5	     1650,21	-126,4
      43,607	      1636,6	-126,4	     1645,61	-126,4
       43,61	     1634,24	-126,2	      1641,1	-126,4
     43,6129	     1631,41	-126,3	     1639,06	-126,1
     43,6158	     1629,59	-126,1	      1635,8	-126,3
     43,6188	     1622,77	-126,4	     1631,76	-126,4
     43,6217	     1622,25	-126,3	     1629,67	-125,9
     43,6246	      1621,2	-125,9	     1624,01	-126,2
     43,6276	     1614,81	-126,3	     1622,08	-126,1
     43,6305	     1611,13	-126,1	     1620,38	-126,1
     43,6334	     1608,13	-126,1	     1614,07	-126,2
     43,6364	     1606,16	-125,8	      1610,8	-126,0
     43,6393	     1602,52	-126,0	     1607,91	-126,1
     43,6422	     1599,28	-126,2	     1607,74	-125,9
     43,6452	     1596,89	-125,8	     1601,63	-125,9
     43,6481	     1592,48	-125,8	     1597,98	-126,0
      43,651	     1590,36	-125,9	     1596,22	-125,8
      43,654	     1585,11	-125,9	     1594,75	-126,1
     43,6569	     1582,62	-125,9	     1589,81	-125,8
     43,6598	     1579,98	-125,8	     1587,17	-125,8
     43,6628	     1576,28	-125,8	     1583,13	-126,0
     43,6657	     1573,83	-125,8	     1579,46	-125,8
     43,6686	     1569,39	-125,6	     1577,74	-125,9
     43,6716	     1567,43	-125,7	     1573,37	-125,6
     43,6745	     1565,52	-125,6	        1570	-125,6
     43,6774	     1561,06	-125,8	     1569,16	-125,9
     43,6804	     1557,68	-125,5	     1562,39	-125,7
     43,6833	     1554,36	-125,6	     1560,23	-125,6
     43,6862	     1555,62	-125,6	     1557,93	-125,6
     43,6891	     1548,06	-125,4	     1551,68	-125,9
     43,6921	     1544,47	-125,7	     1551,73	-125,5
      43,695	     1544,18	-125,3	     1549,31	-125,6
     43,6979	      1540,6	-125,5	      1544,4	-125,6
     43,7009	     1537,92	-125,4	     1542,01	-125,4
     43,7038	     1531,81	-125,3	     1538,66	-125,5
     43,7067	     1528,26	-125,5	     1535,53	-125,4
     43,7097	     1528,17	-125,2	     1532,34	-125,5
     43,7126	     1524,51	-125,4	     1527,94	-125,6
     43,7155	     1521,71	-125,2	     1525,38	-125,3
     43,7185	     1518,27	-125,2	     1523,91	-125,5
     43,7214	     1516,46	-125,1	     1520,51	-125,3
     43,7243	     1512,53	-125,1	     1516,21	-125,4
     43,7273	     1509,98	-125,1	     1514,28	-125,3
     43,7302	     1504,81	-125,0	     1511,28	-125,3
     43,7331	     1502,59	-125,1	     1508,11	-125,1
     43,7361	     1499,77	-124,9	     1504,56	-125,2
      43,739	     1496,55	-125,1	     1501,17	-125,2
     43,7419	     1495,33	-125,2	     1500,32	-125,0
     43,7449	     1489,99	-124,9	     1495,95	-125,2
     43,7478	     1487,72	-125,1	     1493,15	-125,0
     43,7507	     1484,77	-125,0	     1487,75	-125,1
     43,7537	     1484,72	-125,1	     1486,19	-125,0
     43,7566	     1478,36	-124,8	     1483,61	-125,2
     43,7595	     1476,56	-125,0	     1481,13	-125,0
     43,7625	     1474,54	-124,7	     1477,84	-124,9
     43,7654	     1472,13	-124,8	     1472,58	-125,1
     43,7683	     1468,13	-124,9	     1471,79	-124,8
     43,7713	     1464,65	-125,0	     1470,59	-125,1
     43,7742	     1462,04	-124,8	     1468,44	-124,7
     43,7771	     1460,69	-124,6	     1462,05	-124,8
     43,7801	      1456,6	-124,8	     1459,73	-124,9
      43,783	     1455,67	-124,7	     1458,99	-124,9
     43,7859	     1449,54	-124,6	     1454,29	-124,9
     43,7889	      1446,1	-124,7	     1452,27	-124,5
     43,7918	     1445,27	-124,7	     1448,06	-124,9
     43,7947	     1443,46	-124,7	        1446	-124,6
     43,7977	     1440,08	-124,7	     1443,34	-124,9
     43,8006	      1434,6	-124,6	     1439,72	-124,7
     43,8035	      1434,6	-124,4	     1437,04	-124,4
     43,8064	     1429,83	-124,6	     1434,39	-124,6
     43,8094	     1426,78	-124,6	     1433,08	-124,7
     43,8123	     1426,17	-124,6	     1428,49	-124,7
     43,8153	     1421,05	-124,4	     1427,25	-124,4
     43,8182	     1418,85	-124,6	     1422,04	-124,6
     43,8211	     1418,17	-124,3	     1419,12	-124,4
      43,824	     1412,97	-124,4	     1418,31	-124,6
      43,827	      1411,1	-124,6	     1416,39	-124,5
     43,8299	     1409,99	-124,3	     1412,89	-124,3
     43,8328	     1405,09	-124,3	     1409,42	-124,3
     43,8358	     1403,02	-124,2	     1406,18	-124,2
     43,8387	     1402,86	-124,4	     1403,99	-124,5
     43,8416	     1397,76	-124,1	        1403	-124,3
     43,8446	      1394,4	-124,4	     1397,92	-124,4
     43,8475	     1392,34	-124,2	     1394,82	-124,1
     43,8504	     1390,92	-124,1	     1393,21	-124,2
     43,8534	     1386,61	-124,4	     1391,06	-124,3
     43,8563	     1385,21	-124,1	     1388,22	-124,4
     43,8592	     1380,42	-124,3	     1385,95	-124,3
     43,8622	     1378,99	-124,1	     1382,95	-124,3
     43,8651	     1376,88	-124,1	     1378,33	-124,3
      43,868	     1375,06	-123,9	     1376,92	-124,0
      43,871	     1371,54	-124,2	     1374,64	-124,3
     43,8739	     1368,22	-124,1	        1373	-124,1
     43,8768	     1366,81	-124,0	     1370,12	-124,2
     43,8798	     1362,33	-123,8	      1364,9	-124,0
     43,8827	     1359,13	-124,1	     1362,61	-124,1
     43,8856	     1359,43	-123,8	     1361,68	-124,0
     43,8886	     1355,25	-123,9	     1359,53	-124,1
     43,8915	     1351,72	-124,1	     1357,51	-124,0
     43,8944	     1349,91	-123,8	     1350,41	-123,9
     43,8974	     1346,65	-123,6	      1350,9	-123,9
     43,9003	     1346,12	-123,9	     1346,99	-124,0
     43,9032	     1343,31	-124,0	     1345,24	-124,0
     43,9062	     1339,91	-123,8	     1342,18	-124,1
     43,9091	     1336,76	-124,0	     1341,67	-123,8
      43,912	     1334,48	-123,6	      1337,6	-123,8
      43,915	     1333,18	-123,8	     1335,24	-123,8
     43,9179	     1332,45	-123,7	     1332,34	-123,8
     43,9208	      1327,3	-123,8	     1329,84	-124,0
     43,9238	     1324,63	-123,7	        1330	-123,6
     43,9267	     1323,05	-123,8	        1325	-123,8
     43,9296	     1320,05	-123,6	     1321,99	-123,6
     43,9326	     1316,86	-123,7	     1320,93	-123,7
     43,9355	     1316,85	-123,5	     1317,41	-123,7
     43,9384	     1314,88	-123,7	     1314,51	-123,8
     43,9413	     1309,46	-123,6	     1315,03	-123,5
     43,9443	     1307,71	-123,5	     1310,45	-123,7
     43,9472	     1306,25	-123,3	     1308,83	-123,5
     43,9501	      1303,8	-123,4	     1303,71	-123,8
     43,9531	     1304,25	-123,5	     1302,67	-123,5
      43,956	     1297,11	-123,4	     1301,41	-123,7
     43,9589	     1295,66	-123,6	     1297,11	-123,5
     43,9619	     1295,36	-123,5	     1295,85	-123,6
     43,9648	      1290,9	-123,3	     1292,55	-123,3
     43,9677	     1289,32	-123,2	     1289,89	-123,4
     43,9707	     1286,77	-123,4	     1287,59	-123,5
     43,9736	     1286,16	-123,4	     1285,97	-123,4
     43,9765	     1282,43	-123,4	     1283,77	-123,5
     43,9795	     1276,85	-123,1	     1281,94	-123,3
     43,9824	     1276,36	-123,3	     1281,61	-123,3
     43,9853	     1274,46	-123,2	     1274,79	-123,3
     43,9883	     1273,24	-123,2	     1272,12	-123,5
     43,9912	     1272,36	-123,2	     1273,63	-123,3
     43,9941	     1265,36	-123,3	     1269,78	-123,5
     43,9971	     1266,11	-123,2	     1266,04	-123,1
          44	     1265,88	-123,2	     1264,69	-123,3

