X-Data [Hz]	Piezo (M - Filtered) [mV]	Phase [Deg]	Piezo (M - Filtered) [mV]	Phase [Deg]	
	002: [07-09-24 09:30]		003: [07-09-24 09:34]	
        40,5	     40,7083	-108,1	     44,9469	-111,1
     40,5029	     42,4981	-110,1	     44,6007	-108,5
     40,5059	     43,5745	-109,7	     44,8914	-109,1
     40,5088	     44,3059	-110,5	     44,9439	-110,8
     40,5117	     44,5561	-110,1	     44,8997	-109,4
     40,5147	      44,621	-108,8	     45,1755	-111,2
     40,5176	     44,8866	-109,4	     45,1113	-109,4
     40,5205	     44,8697	-108,4	     45,1042	-108,2
     40,5235	     44,8697	-110,1	     45,2443	-109,2
     40,5264	     45,3919	-110,4	     45,1782	-108,1
     40,5293	     44,9809	-109,3	     45,4293	-109,7
     40,5323	     45,1244	-108,6	     45,4778	-110,5
     40,5352	     45,4547	-109,5	     45,5773	-108,5
     40,5381	     45,2182	-108,6	      45,896	-110,8
     40,5411	     45,5256	-110,0	     45,5511	-108,9
      40,544	     45,4522	-110,2	        45,7	-108,3
     40,5469	     45,5775	-108,8	     45,8386	-110,4
     40,5499	     45,5098	-110,4	     45,9297	-109,6
     40,5528	     45,8794	-108,3	     45,8272	-108,1
     40,5557	     45,5669	-109,0	     46,1674	-109,6
     40,5587	     46,1266	-110,4	     45,9856	-108,0
     40,5616	     45,7427	-108,6	     46,1859	-109,3
     40,5645	     46,2604	-110,3	       46,31	-110,6
     40,5674	     46,0118	-110,0	     46,2548	-108,6
     40,5704	     46,1158	-108,5	     46,3982	-110,8
     40,5733	     46,1853	-109,3	     46,4255	-108,8
     40,5762	     46,1985	-108,2	     46,5129	-108,1
     40,5792	     46,2877	-109,1	     46,5624	-109,8
     40,5821	     46,4895	-110,3	     46,5833	-108,4
      40,585	      46,513	-109,8	     46,6973	-108,6
      40,588	     46,7484	-110,5	     46,9519	-110,1
     40,5909	     46,6457	-109,9	     46,8615	-108,8
     40,5938	     46,5538	-108,4	     46,9954	-110,8
     40,5968	     46,7531	-108,9	     47,3803	-110,0
     40,5997	     46,7449	-108,8	     47,0708	-107,9
     40,6026	     46,8964	-108,0	     47,3944	-110,6
     40,6056	      46,905	-109,4	     47,3589	-108,9
     40,6085	     47,3049	-110,3	     47,1578	-107,9
     40,6114	     47,1311	-109,1	     47,5871	-109,2
     40,6144	     47,2518	-109,8	     47,2764	-108,3
     40,6173	     47,2972	-109,0	     47,5472	-109,1
     40,6202	     47,1389	-108,2	     47,6197	-110,7
     40,6232	     47,5454	-110,1	     47,7897	-108,7
     40,6261	     47,6994	-110,3	     47,5628	-108,2
      40,629	     47,5188	-109,3	     48,1896	-109,4
      40,632	     47,7281	-109,9	     47,6141	-107,9
     40,6349	     47,6335	-109,2	     48,2345	-109,6
     40,6378	     47,9133	-108,1	     48,1773	-110,3
     40,6408	     47,7709	-108,8	     48,3259	-109,0
     40,6437	     48,0422	-108,1	     48,3647	-110,4
     40,6466	     47,9622	-109,1	      48,556	-109,8
     40,6496	      48,314	-110,0	     48,3905	-108,1
     40,6525	     48,0276	-109,3	     48,3671	-108,3
     40,6554	      48,449	-110,1	     48,5943	-108,3
     40,6584	     48,4288	-109,4	     48,5259	-108,1
     40,6613	     48,4243	-108,4	     48,9437	-110,2
     40,6642	      48,475	-108,8	       48,86	-109,6
     40,6672	     48,8297	-110,1	     48,8186	-108,2
     40,6701	     48,5995	-107,9	     49,1519	-110,2
      40,673	      48,865	-109,1	     49,2952	-109,0
      40,676	     48,9758	-110,2	     49,0942	-107,7
     40,6789	     48,8192	-108,6	     49,2417	-108,2
     40,6818	     49,1286	-110,1	     49,0748	-108,0
     40,6847	     49,0156	-108,5	     49,5499	-108,7
     40,6877	     49,0554	-107,7	     49,6837	-109,8
     40,6906	     49,1448	-109,0	     49,7977	-109,7
     40,6936	     49,4824	-110,0	     49,6087	-109,3
     40,6965	     49,4417	-108,0	     49,9333	-110,0
     40,6994	     49,5408	-109,6	     49,8637	-108,5
     40,7023	     49,8503	-109,3	     49,7682	-107,4
     40,7053	      49,393	-108,3	     50,0853	-109,2
     40,7082	     49,8621	-108,3	     49,8857	-107,6
     40,7111	     49,6945	-108,5	     50,1809	-108,6
     40,7141	     49,6335	-108,0	     50,3435	-109,7
      40,717	     50,1303	-108,7	     50,5365	-109,3
     40,7199	     49,9689	-107,7	     50,3552	-107,1
     40,7229	     50,1539	-108,3	     50,7456	-109,3
     40,7258	     50,3117	-109,3	     50,4849	-107,9
     40,7287	     50,4272	-109,3	      50,513	-107,0
     40,7317	     50,1968	-108,4	      50,649	-108,2
     40,7346	     50,3023	-108,2	     50,9743	-109,8
     40,7375	     50,6174	-108,8	     50,9848	-107,9
     40,7405	     50,7733	-108,0	     51,2522	-109,9
     40,7434	     50,6354	-108,7	     51,1203	-108,9
     40,7463	     51,1384	-109,6	      51,184	-107,5
     40,7493	     50,7161	-108,9	     51,5106	-109,4
     40,7522	     51,1049	-109,5	     51,5252	-108,6
     40,7551	     51,1175	-109,5	     51,4153	-108,1
     40,7581	     51,3719	-108,4	     51,6315	-109,4
      40,761	     51,1065	-107,6	     51,7548	-109,2
     40,7639	     51,3969	-108,8	     51,6667	-107,8
     40,7669	     51,2982	-108,0	     51,7507	-107,8
     40,7698	     51,4207	-108,0	     51,8903	-109,4
     40,7727	     51,5941	-108,9	     52,0062	-107,3
     40,7757	     51,5785	-107,7	     52,0629	-108,1
     40,7786	     51,7123	-107,9	     52,3685	-109,3
     40,7815	     51,9392	-109,0	     52,5355	-109,3
     40,7845	     52,2134	-109,0	     52,4477	-108,2
     40,7874	     51,9361	-107,7	     52,6402	-109,5
     40,7903	     52,3682	-109,1	     52,8137	-108,9
     40,7933	     52,3041	-108,4	     52,6066	-107,1
     40,7962	     52,0429	-107,2	     52,7783	-107,2
     40,7991	     52,5317	-107,7	     52,9143	-108,1
     40,8021	     52,4621	-107,9	     52,8901	-107,4
      40,805	     52,6075	-107,4	     52,8634	-107,2
     40,8079	     52,8093	-108,4	     53,1738	-108,6
     40,8109	     53,0218	-109,3	     53,2236	-106,7
     40,8138	     52,8769	-108,6	     53,2605	-108,1
     40,8167	     52,8684	-107,7	     53,6393	-109,2
     40,8196	     53,2536	-108,7	     53,6682	-108,8
     40,8226	     53,0816	-107,8	     53,7922	-108,2
     40,8255	     53,1428	-107,5	     53,8395	-108,6
     40,8284	      53,495	-108,6	     53,8157	-108,6
     40,8314	     53,7052	-109,0	      53,802	-106,5
     40,8343	     53,6968	-107,6	     53,8471	-107,6
     40,8372	     53,7483	-108,9	      54,235	-108,7
     40,8402	     53,8372	-108,9	     53,9136	-107,2
     40,8431	     53,7004	-107,7	     54,4851	-107,8
      40,846	     53,7592	-107,2	     54,3928	-108,4
      40,849	     54,1667	-108,8	     54,7225	-108,8
     40,8519	     54,2484	-107,9	     54,6628	-107,6
     40,8548	     54,0305	-107,1	     55,0274	-108,8
     40,8578	     54,4638	-107,4	      54,879	-108,5
     40,8607	     54,6373	-108,7	      55,248	-107,3
     40,8636	     54,4004	-107,1	     55,0129	-106,5
     40,8666	     54,7714	-107,9	     55,4159	-108,2
     40,8695	     54,9629	-108,8	      55,262	-106,4
     40,8724	     54,7002	-107,0	     55,2528	-106,5
     40,8754	     54,9443	-107,5	     55,4141	-107,8
     40,8783	     55,2406	-108,7	      55,845	-108,8
     40,8812	     55,3469	-109,0	     55,5124	-106,3
     40,8842	     55,2063	-108,0	     55,6503	-107,5
     40,8871	     55,7131	-108,7	     56,2032	-108,5
       40,89	     55,5686	-108,9	     56,0121	-106,7
      40,893	     55,7571	-107,8	     56,0694	-107,5
     40,8959	     55,5982	-106,9	     56,3012	-108,6
     40,8988	     55,9749	-108,7	     56,7761	-108,7
     40,9018	     56,1325	-107,9	     56,5378	-107,5
     40,9047	     56,0901	-106,8	     56,7963	-108,0
     40,9076	     56,1341	-107,0	     56,8417	-108,7
     40,9106	     56,3893	-108,2	     57,0292	-108,0
     40,9135	      56,578	-108,5	     56,9823	-107,0
     40,9164	     56,4294	-106,6	     57,1749	-108,5
     40,9194	     56,6978	-107,8	     57,3037	-107,5
     40,9223	     56,7799	-108,7	      57,074	-106,7
     40,9252	     56,6836	-106,9	     57,4126	-106,4
     40,9282	      56,997	-107,8	     57,5359	-107,9
     40,9311	     57,3204	-108,5	     57,8311	-108,8
      40,934	     57,4409	-108,3	     57,8643	-107,4
      40,937	     57,1411	-107,5	     58,0873	-108,1
     40,9399	     57,6807	-108,4	     58,1444	-108,4
     40,9428	     57,6481	-108,2	     58,2503	-108,0
     40,9457	     57,3421	-107,0	     58,1115	-107,1
     40,9487	     57,7397	-106,2	     58,4041	-107,8
     40,9516	     57,7595	-106,9	     58,6168	-108,1
     40,9545	     57,8358	-107,3	     58,5878	-107,1
     40,9575	     58,0675	-106,8	     58,5307	-106,3
     40,9604	     58,1382	-106,6	     58,8665	-108,1
     40,9633	     58,4855	-107,8	     59,0637	-107,5
     40,9663	      58,572	-108,2	     58,9763	-106,5
     40,9692	     58,5467	-106,9	     59,1198	-106,2
     40,9721	     58,7358	-107,9	     59,1099	-107,3
     40,9751	     59,0285	-108,2	     59,4246	-106,7
      40,978	     58,9276	-107,9	      59,439	-105,9
     40,9809	     58,9514	-106,5	     59,4572	-106,3
     40,9839	     59,0604	-106,4	     59,7184	-107,0
     40,9868	      59,383	-107,4	     59,7945	-106,1
     40,9897	     59,4454	-106,7	      59,983	-105,8
     40,9927	      59,296	-106,4	     59,9554	-106,7
     40,9956	     59,6271	-106,5	     60,6099	-107,9
     40,9985	     59,9648	-107,9	     60,5657	-108,0
     41,0015	     59,9156	-106,3	     60,4602	-106,6
     41,0044	     59,9455	-106,7	     60,6153	-107,6
     41,0073	     60,1955	-107,1	     61,1844	-107,9
     41,0103	     60,3724	-107,7	      60,967	-107,0
     41,0132	     60,2258	-106,0	     60,9939	-106,0
     41,0161	     60,4994	-106,5	     61,3289	-107,7
     41,0191	     60,8449	-107,2	      61,683	-107,7
      41,022	     60,9354	-107,9	     61,4626	-106,4
     41,0249	     61,1147	-107,4	     61,5776	-106,0
     41,0279	     61,1915	-107,3	     61,9718	-107,4
     41,0308	     61,3481	-107,9	     62,0825	-108,1
     41,0337	     61,4563	-108,0	     62,2258	-107,3
     41,0367	     61,2132	-106,5	     62,0804	-106,0
     41,0396	     61,4515	-106,0	     62,1706	-105,6
     41,0425	     61,6592	-107,5	     62,6699	-107,1
     41,0455	     61,9259	-107,3	     62,5839	-106,1
     41,0484	     61,9233	-106,6	     62,6873	-105,5
     41,0513	     61,7956	-105,7	     62,5718	-105,6
     41,0543	     62,4766	-107,5	     62,9892	-106,8
     41,0572	       62,31	-106,9	     63,1113	-105,8
     41,0601	     62,3462	-106,1	     63,2205	-105,5
      41,063	     62,6631	-106,0	     63,2778	-106,0
      41,066	     62,6403	-106,1	     63,6862	-106,9
     41,0689	     63,0405	-107,1	     63,8478	-107,0
     41,0718	     62,8451	-105,7	     63,7075	-105,8
     41,0748	     63,0646	-105,4	     64,0247	-106,3
     41,0777	     63,3915	-105,6	      64,319	-106,9
     41,0806	     63,4309	-106,5	     64,4499	-107,4
     41,0836	     63,5063	-105,8	     64,5755	-106,7
     41,0865	     63,6641	-105,7	     64,5401	-106,2
     41,0894	     63,7955	-106,4	     64,8156	-107,1
     41,0924	     64,1984	-106,7	     65,1568	-107,1
     41,0953	     64,1063	-106,4	     65,1978	-106,0
     41,0982	     64,0951	-105,3	     65,2083	-105,5
     41,1012	     64,7607	-107,1	     65,3461	-106,5
     41,1041	     64,7476	-107,0	     65,5415	-106,9
      41,107	     64,8554	-106,3	     65,5945	-106,6
       41,11	     64,8047	-105,9	     65,7717	-106,0
     41,1129	     64,8962	-105,4	     65,9702	-106,5
     41,1158	     65,4743	-107,0	     66,3683	-107,0
     41,1188	     65,5216	-106,5	     66,3183	-106,3
     41,1217	     65,3229	-105,4	     66,4516	-106,0
     41,1246	     65,5586	-105,4	     66,5943	-105,2
     41,1276	     65,6882	-105,6	     66,7356	-106,2
     41,1305	     66,0848	-106,6	      66,895	-106,5
     41,1334	     66,1413	-105,4	     67,1687	-106,9
     41,1364	     66,0325	-105,2	     67,3553	-105,9
     41,1393	     66,4249	-105,7	     67,4881	-106,2
     41,1422	     66,7032	-106,3	     67,6838	-106,3
     41,1452	     66,6593	-105,5	     67,9731	-106,1
     41,1481	     66,8135	-105,3	     67,5696	-104,3
      41,151	     67,0287	-105,5	     67,7805	-104,8
      41,154	     67,3126	-106,1	     68,1811	-105,6
     41,1569	     67,5721	-106,7	     68,5994	-106,2
     41,1598	     67,6745	-106,0	     68,6454	-106,5
     41,1628	     67,5421	-105,2	     68,5771	-105,1
     41,1657	     67,9929	-106,6	     68,6483	-104,8
     41,1686	     68,1419	-106,7	     68,9766	-105,6
     41,1716	     68,2456	-105,8	     69,4163	-106,2
     41,1745	     68,4163	-105,7	     69,0739	-104,6
     41,1774	     68,5085	-105,3	     69,5353	-104,7
     41,1804	     68,8025	-105,6	     69,5809	-105,5
     41,1833	     69,1598	-106,5	     69,9925	-106,4
     41,1862	     69,0201	-106,0	     70,3697	-105,9
     41,1891	      69,285	-105,4	     70,0826	-104,3
     41,1921	       69,31	-105,8	     70,5233	-104,6
      41,195	     69,5915	-106,0	     70,4778	-105,3
     41,1979	      70,068	-106,0	     70,9028	-106,3
     41,2009	     69,8192	-104,5	     71,2237	-106,0
     41,2038	     69,8631	-104,7	     71,3177	-105,3
     41,2067	     70,3899	-105,7	     71,2429	-104,5
     41,2097	     70,6728	-106,3	     71,3943	-104,6
     41,2126	     70,6368	-106,0	     71,4041	-105,4
     41,2155	     70,5385	-104,8	     72,0184	-104,5
     41,2185	     71,0759	-105,1	     71,7953	-104,1
     41,2214	     71,3035	-105,7	     72,1414	-104,6
     41,2243	     71,5567	-106,1	     72,5035	-104,6
     41,2273	     71,5297	-106,0	     72,5763	-104,9
     41,2302	     71,6598	-104,4	     72,8149	-104,3
     41,2331	     71,7907	-104,7	     72,9952	-104,0
     41,2361	     72,1262	-104,8	     73,0478	-103,9
      41,239	     72,3794	-105,4	     73,3121	-104,6
     41,2419	     72,2831	-104,4	     73,5251	-104,5
     41,2449	     72,4668	-104,2	     73,9726	-104,6
     41,2478	      72,718	-104,5	     73,9406	-104,0
     41,2507	     73,0926	-105,0	     73,9418	-103,9
     41,2537	     73,3142	-105,0	     74,3865	-104,9
     41,2566	     73,3904	-104,5	     74,7515	-105,2
     41,2595	     73,4595	-103,7	       75,02	-105,2
     41,2625	     73,6373	-104,1	     74,8729	-104,4
     41,2654	     73,8958	-104,4	     75,1211	-103,8
     41,2683	     74,1501	-105,1	     75,3411	-103,7
     41,2713	     74,3948	-104,5	     75,5116	-104,7
     41,2742	      74,354	-104,4	     75,9827	-105,3
     41,2771	      74,583	-103,8	     76,3217	-104,9
     41,2801	     75,0692	-104,9	     76,0521	-103,9
      41,283	      75,432	-105,1	     76,4848	-104,2
     41,2859	     75,4103	-105,2	     76,8801	-104,5
     41,2889	     75,3278	-103,8	     76,8542	-104,7
     41,2918	     75,5226	-103,8	     77,2373	-105,1
     41,2947	     76,0243	-103,8	     77,6319	-104,5
     41,2977	     76,3783	-104,1	     77,5258	-103,9
     41,3006	      76,471	-105,1	     77,8719	-104,1
     41,3035	     76,6073	-103,9	      78,041	-104,0
     41,3064	     76,6095	-103,7	     78,4271	-104,6
     41,3094	     76,8215	-103,3	     78,7089	-104,5
     41,3123	     77,0316	-103,6	      78,364	-103,1
     41,3153	     77,5284	-104,0	     78,6518	-103,2
     41,3182	      77,777	-103,7	     79,2579	-103,1
     41,3211	     77,8673	-103,7	     79,2692	-103,8
      41,324	     77,9121	-103,6	     79,7887	-104,6
      41,327	      78,161	-103,0	     79,7215	-103,0
     41,3299	     78,7678	-104,8	     80,0138	-103,1
     41,3328	     78,9267	-104,5	     80,2278	-102,5
     41,3358	     79,3791	-104,7	     80,7228	-104,0
     41,3387	     79,4539	-104,1	     80,9227	-103,8
     41,3416	     79,3766	-103,7	     81,2377	-103,9
     41,3446	     79,8022	-103,6	     81,3439	-103,6
     41,3475	     80,2251	-103,8	      81,371	-103,0
     41,3504	     80,4814	-104,4	     81,8028	-102,4
     41,3534	     80,2107	-102,8	     82,2066	-103,4
     41,3563	     80,6082	-102,8	     82,3719	-103,8
     41,3592	      80,921	-103,1	     82,6809	-104,1
     41,3622	     81,1704	-103,2	     82,6833	-102,7
     41,3651	     81,1919	-103,3	     82,8526	-102,4
      41,368	     81,6509	-103,4	     83,0464	-102,2
      41,371	     82,0029	-103,4	     83,3521	-102,8
     41,3739	      82,095	-103,0	     83,9098	-103,1
     41,3768	     82,1021	-102,6	      84,108	-103,2
     41,3798	     82,5028	-102,3	     84,3709	-102,9
     41,3827	     82,7568	-102,9	     84,6544	-102,4
     41,3856	     83,2137	-103,8	     84,7648	-102,2
     41,3886	     83,5301	-103,7	     85,1889	-102,8
     41,3915	      83,575	-103,4	     85,5014	-103,7
     41,3944	     83,7869	-102,6	     85,7982	-103,4
     41,3974	     84,1939	-102,7	     86,0142	-102,9
     41,4003	     84,6288	-103,2	      86,276	-103,0
     41,4032	     84,9405	-103,4	     86,2242	-102,2
     41,4062	     85,1591	-103,3	      86,721	-102,5
     41,4091	     84,7121	-102,2	      87,189	-103,0
      41,412	      85,326	-101,6	     87,6016	-102,5
      41,415	     85,7244	-101,9	     87,4768	-102,7
     41,4179	     85,9767	-102,3	      87,775	-101,3
     41,4208	     86,3372	-102,6	     88,2361	-102,0
     41,4238	     86,7652	-103,0	     88,5631	-101,6
     41,4267	     86,7487	-102,6	     88,8223	-101,7
     41,4296	     87,0878	-102,7	     89,1681	-101,8
     41,4326	     87,4522	-102,1	      89,501	-102,1
     41,4355	     87,6916	-101,8	     89,8094	-102,4
     41,4384	      88,095	-102,0	     90,3139	-102,1
     41,4413	     88,3776	-102,3	     90,3383	-101,2
     41,4443	     88,6674	-102,2	     90,4507	-101,1
     41,4472	     88,8045	-101,9	     90,9372	-101,7
     41,4501	     88,8785	-101,8	     91,2329	-101,4
     41,4531	     89,3214	-101,4	     91,7618	-102,2
      41,456	     89,6456	-101,4	     92,1022	-101,6
     41,4589	     90,1051	-102,2	     92,5171	-101,0
     41,4619	      90,848	-102,6	     92,7955	-101,2
     41,4648	     91,0368	-102,6	     92,9754	-101,6
     41,4677	     91,0285	-102,1	     93,3756	-101,5
     41,4707	     91,4623	-102,1	     93,6447	-101,1
     41,4736	     91,6318	-100,8	     93,9078	-101,4
     41,4765	     91,9509	-101,2	     94,5425	-102,0
     41,4795	     92,0104	-101,1	     94,6858	-100,8
     41,4824	     92,7788	-102,0	     94,9077	-100,3
     41,4853	     93,1298	-101,7	     95,1169	-99,9
     41,4883	     93,3138	-101,7	     95,5291	-100,4
     41,4912	     93,4365	-101,5	     96,2819	-101,5
     41,4941	     93,8926	-101,1	     96,6008	-101,3
     41,4971	     94,3424	-100,8	     97,0683	-101,3
        41,5	     94,5829	-100,8	      97,426	-100,8
     41,5029	     94,8863	-101,4	     97,7844	-101,0
     41,5059	     95,2103	-100,9	     97,7144	-100,1
     41,5088	     95,7118	-101,3	     98,1822	-99,9
     41,5117	      96,162	-100,5	     98,5377	-99,7
     41,5147	     96,3862	-100,4	     99,0553	-100,1
     41,5176	     96,5303	-100,5	     99,3804	-100,3
     41,5205	      96,764	-100,1	     99,9557	-100,3
     41,5235	     97,7234	-100,9	     100,579	-99,6
     41,5264	      98,294	-101,0	     100,853	-99,0
     41,5293	     98,5352	-101,4	     101,048	-99,5
     41,5323	     98,7538	-101,4	     101,352	-99,4
     41,5352	     99,1518	-100,9	     101,719	-99,1
     41,5381	     99,2077	-99,5	     102,629	-100,2
     41,5411	     99,7555	-99,8	     103,097	-100,2
      41,544	     99,8573	-99,6	     103,486	-100,2
     41,5469	     100,892	-100,9	     103,818	-99,7
     41,5499	     101,318	-100,4	       104,1	-98,7
     41,5528	     101,636	-100,5	     104,564	-98,6
     41,5557	     101,692	-100,7	     104,993	-98,8
     41,5587	     102,353	-100,3	      105,44	-99,0
     41,5616	     102,805	-100,1	     105,915	-98,4
     41,5645	     102,766	-99,1	     106,782	-99,3
     41,5674	     103,208	-99,1	      107,15	-99,4
     41,5704	     103,969	-99,3	     107,569	-99,7
     41,5733	     104,242	-99,3	     108,049	-99,1
     41,5762	     104,704	-99,1	     108,335	-98,0
     41,5792	     105,279	-99,8	     108,856	-98,1
     41,5821	     105,591	-99,8	     109,268	-98,0
      41,585	     106,141	-99,5	     109,684	-97,8
      41,588	     106,407	-99,2	     110,614	-98,8
     41,5909	     106,875	-99,0	     110,942	-98,6
     41,5938	     107,671	-98,8	     111,648	-98,7
     41,5968	     108,087	-98,8	     112,106	-98,4
     41,5997	     108,474	-98,4	     112,595	-98,1
     41,6026	     109,127	-98,5	     112,797	-97,1
     41,6056	     109,602	-99,2	     113,296	-97,2
     41,6085	     109,886	-99,1	     113,993	-97,0
     41,6114	     110,339	-98,6	     114,569	-96,8
     41,6144	     110,614	-98,6	      115,12	-97,0
     41,6173	     111,181	-98,4	     116,165	-97,6
     41,6202	     112,051	-98,0	     116,767	-97,8
     41,6232	     112,555	-97,8	     117,277	-97,4
     41,6261	     112,995	-97,8	     117,841	-97,3
      41,629	     113,584	-98,0	     118,588	-97,5
      41,632	     114,241	-98,1	     118,722	-96,3
     41,6349	      114,57	-98,0	     119,273	-95,9
     41,6378	     114,928	-97,5	     119,899	-96,1
     41,6408	      115,62	-97,7	     120,624	-96,2
     41,6437	     116,175	-97,7	      121,11	-96,1
     41,6466	     116,714	-96,9	     122,258	-96,6
     41,6496	     117,431	-96,9	     122,953	-96,5
     41,6525	     118,212	-97,3	     123,636	-96,4
     41,6554	     118,855	-97,3	     124,447	-96,3
     41,6584	     119,353	-96,7	      124,95	-95,8
     41,6613	     119,955	-97,0	     125,574	-94,8
     41,6642	     120,295	-96,8	     126,254	-94,8
     41,6672	     121,056	-96,6	     127,019	-94,8
     41,6701	     121,668	-96,3	     127,775	-94,4
      41,673	      122,31	-96,2	     128,943	-95,3
      41,676	      122,87	-96,3	     129,604	-95,2
     41,6789	      123,73	-95,8	     130,528	-95,5
     41,6818	     124,228	-95,4	     131,298	-94,9
     41,6847	     124,878	-95,2	     132,174	-94,7
     41,6877	     125,853	-96,2	     132,938	-94,6
     41,6906	     126,665	-96,2	     133,823	-94,5
     41,6936	     127,433	-95,7	     134,581	-93,5
     41,6965	     128,139	-95,8	     135,417	-93,0
     41,6994	     128,382	-95,0	     136,501	-93,3
     41,7023	     129,193	-95,0	     137,786	-94,1
     41,7053	     130,025	-94,7	     138,778	-93,7
     41,7082	     130,632	-94,2	     139,846	-93,2
     41,7111	      131,47	-94,3	     141,058	-93,3
     41,7141	     132,175	-94,0	     142,397	-92,9
      41,717	     133,281	-93,6	     143,471	-92,7
     41,7199	     134,332	-93,7	     144,628	-91,7
     41,7229	     135,554	-94,5	     145,983	-92,0
     41,7258	      136,22	-94,5	     147,344	-91,4
     41,7287	     137,178	-94,1	      148,88	-91,3
     41,7317	     138,196	-94,0	     151,422	-91,0
     41,7346	     138,709	-93,3	     154,141	-90,8
     41,7375	     139,686	-93,1	     157,744	-90,4
     41,7405	      140,58	-93,1	     162,291	-89,7
     41,7434	     141,558	-92,2	     170,305	-89,7
     41,7463	     142,718	-92,3	     178,471	-88,8
     41,7493	     143,512	-91,6	     188,335	-87,0
     41,7522	     144,459	-91,7	     198,566	-85,1
     41,7551	     145,266	-91,7	     210,157	-83,1
     41,7581	     147,117	-92,2	     221,288	-80,5
      41,761	      148,23	-91,6	     234,233	-76,6
     41,7639	     149,417	-91,6	     244,618	-74,0
     41,7669	     150,284	-91,4	     254,307	-71,8
     41,7698	     151,485	-91,0	     263,625	-68,6
     41,7727	     152,616	-90,3	     271,561	-66,4
     41,7757	     153,813	-90,5	     280,213	-63,9
     41,7786	     155,064	-90,3	     286,544	-61,9
     41,7815	     156,352	-89,4	     292,452	-59,3
     41,7845	     157,566	-88,9	     297,534	-57,3
     41,7874	     158,816	-89,1	     302,057	-55,8
     41,7903	     160,257	-88,6	     307,187	-53,6
     41,7933	     162,264	-88,5	     310,542	-51,8
     41,7962	     163,582	-88,1	     313,774	-51,0
     41,7991	     165,078	-88,2	     316,772	-49,2
     41,8021	     166,589	-87,3	      319,49	-47,1
      41,805	     168,381	-87,2	      321,67	-45,7
     41,8079	     170,517	-87,4	     323,904	-44,8
     41,8109	     172,068	-87,0	      325,72	-43,6
     41,8138	     173,941	-86,4	     327,633	-42,2
     41,8167	     176,056	-86,3	      329,32	-41,6
     41,8196	     177,981	-85,7	     331,008	-40,9
     41,8226	     179,949	-84,5	     332,128	-39,7
     41,8255	      182,08	-84,1	     333,235	-38,6
     41,8284	      184,35	-84,0	     334,278	-38,0
     41,8314	     186,514	-83,1	     335,527	-37,4
     41,8343	     189,351	-82,1	     336,326	-36,3
     41,8372	     191,914	-81,7	     337,008	-35,7
     41,8402	     194,306	-81,1	     338,065	-34,7
     41,8431	     197,208	-80,1	     338,517	-33,6
      41,846	     201,106	-79,7	     339,063	-33,0
      41,849	     204,034	-78,9	     339,756	-32,7
     41,8519	     206,998	-77,6	      340,21	-31,7
     41,8548	      210,47	-76,9	     340,261	-30,7
     41,8578	     214,242	-76,1	      340,74	-30,4
     41,8607	     219,068	-75,8	     341,365	-29,6
     41,8636	     223,261	-74,2	     341,571	-28,9
     41,8666	     227,765	-73,2	     341,943	-28,5
     41,8695	     232,468	-71,5	     341,823	-28,0
     41,8724	     238,559	-69,9	     341,963	-27,4
     41,8754	      244,18	-68,5	     342,051	-26,9
     41,8783	     250,051	-66,6	     342,115	-26,3
     41,8812	     256,797	-64,5	     342,358	-26,2
     41,8842	     263,608	-62,4	     342,279	-25,4
     41,8871	     272,032	-59,1	     342,261	-25,2
       41,89	     279,667	-56,2	     342,276	-24,6
      41,893	     287,594	-53,7	     342,604	-24,1
     41,8959	     295,113	-50,8	     342,447	-23,8
     41,8988	      302,77	-47,4	     342,488	-23,5
     41,9018	     311,406	-43,0	     342,131	-23,1
     41,9047	     318,199	-40,4	     342,289	-22,0
     41,9076	     324,247	-36,8	     342,269	-22,1
     41,9106	      330,16	-34,0	     342,152	-21,2
     41,9135	     336,027	-30,3	     342,253	-21,1
     41,9164	     339,351	-27,7	     342,182	-20,6
     41,9194	     341,793	-25,5	     342,076	-19,6
     41,9223	     343,779	-24,0	     342,042	-19,2
     41,9252	     345,616	-21,8	     341,865	-19,4
     41,9282	     345,768	-20,1	     341,503	-18,7
     41,9311	     345,782	-19,9	     341,065	-18,0
      41,934	     345,486	-18,8	     340,791	-18,0
      41,937	     345,536	-18,3	     340,498	-17,4
     41,9399	     345,177	-18,0	     340,405	-17,0
     41,9428	     344,629	-17,5	     340,363	-17,0
     41,9457	      344,26	-16,9	     339,705	-16,7
     41,9487	     343,902	-17,1	     339,239	-16,0
     41,9516	     343,473	-16,4	     338,937	-16,1
     41,9545	     343,099	-16,1	      338,56	-15,7
     41,9575	     342,783	-16,0	     338,337	-15,1
     41,9604	     342,381	-15,7	     337,707	-15,0
     41,9633	     342,072	-15,0	     337,572	-14,8
     41,9663	     342,121	-14,7	     337,183	-14,1
     41,9692	     341,618	-14,2	     337,007	-13,9
     41,9721	     341,071	-14,0	     336,727	-13,6
     41,9751	     340,798	-13,7	     336,821	-12,6
      41,978	     340,367	-13,3	     336,635	-12,8
     41,9809	     339,966	-12,7	     336,371	-12,1
     41,9839	     339,725	-12,6	     336,091	-12,0
     41,9868	     339,002	-12,7	     335,788	-12,1
     41,9897	     338,706	-11,9	     335,315	-11,7
     41,9927	     338,162	-11,8	     334,727	-11,1
     41,9956	     337,915	-11,2	     334,313	-11,1
     41,9985	     337,556	-10,9	     333,933	-11,1
     42,0015	       337,1	-10,8	     333,349	-10,3
     42,0044	     336,317	-10,6	      333,09	-10,3
     42,0073	     336,054	-10,0	     332,596	-9,5
     42,0103	     335,826	-10,1	     332,279	-9,4
     42,0132	     335,465	-9,4	     331,871	-9,4
     42,0161	      335,03	-9,2	     331,393	-8,8
     42,0191	     334,159	-9,2	     331,231	-8,7
      42,022	     333,784	-8,8	     330,722	-8,6
     42,0249	     333,178	-8,6	     329,952	-8,2
     42,0279	     332,047	-8,8	     329,482	-7,7
     42,0308	     331,693	-8,1	     329,422	-7,5
     42,0337	     331,498	-7,9	      328,82	-7,6
     42,0367	     331,299	-7,7	     328,433	-7,1
     42,0396	     330,891	-6,9	     328,016	-7,1
     42,0425	     330,003	-7,1	     327,621	-6,7
     42,0455	     329,753	-7,0	     326,937	-6,4
     42,0484	     329,259	-6,3	     326,366	-6,5
     42,0513	     328,978	-6,3	     325,881	-5,7
     42,0543	     328,602	-5,5	     325,494	-5,7
     42,0572	     327,889	-5,4	     324,871	-5,5
     42,0601	     327,351	-5,7	     324,429	-5,1
      42,063	     327,035	-5,0	     323,974	-5,0
      42,066	     326,486	-4,4	     323,586	-4,6
     42,0689	     326,058	-4,5	     323,071	-4,2
     42,0718	     325,203	-3,8	     322,707	-4,1
     42,0748	     324,614	-3,8	     322,284	-4,0
     42,0777	     324,505	-3,6	     321,794	-3,3
     42,0806	         324	-3,2	     321,389	-3,5
     42,0836	     323,355	-3,0	      320,67	-3,1
     42,0865	     323,114	-2,9	      320,46	-2,9
     42,0894	     322,385	-2,4	     319,729	-3,1
     42,0924	      321,84	-2,2	     319,136	-2,5
     42,0953	     321,234	-1,8	     318,685	-2,4
     42,0982	     320,459	-1,7	     318,302	-2,4
     42,1012	      320,19	-1,7	     317,776	-1,6
     42,1041	     319,487	-1,1	     317,336	-1,6
      42,107	     318,892	-1,1	     316,919	-0,9
       42,11	     318,248	-0,8	     316,393	-0,8
     42,1129	     317,254	-0,6	     316,128	-0,5
     42,1158	     317,383	-0,4	     315,306	-0,5
     42,1188	     316,964	 0,1	     315,049	-0,0
     42,1217	     316,315	 0,2	     314,594	 0,1
     42,1246	      315,65	 0,1	     314,188	 0,6
     42,1276	     315,111	 0,5	     313,865	 0,5
     42,1305	     314,536	 1,1	     312,956	 0,6
     42,1334	     313,977	 0,9	     312,503	 1,4
     42,1364	     313,291	 1,4	     312,163	 1,0
     42,1393	     312,794	 1,2	     311,769	 1,5
     42,1422	     312,264	 1,8	     311,391	 1,7
     42,1452	     311,533	 2,1	     310,423	 1,7
     42,1481	     311,037	 1,9	     310,043	 2,4
      42,151	     310,419	 2,5	     309,734	 2,1
      42,154	     310,243	 2,2	     309,138	 2,4
     42,1569	     309,326	 2,7	      308,64	 3,1
     42,1598	     308,868	 2,9	     308,102	 2,9
     42,1628	     308,637	 2,8	     307,513	 3,2
     42,1657	     308,055	 3,4	     306,931	 3,4
     42,1686	     307,625	 3,3	     306,308	 3,2
     42,1716	     306,668	 3,5	      305,64	 3,8
     42,1745	      306,56	 4,0	     305,308	 3,8
     42,1774	     306,077	 4,1	     304,637	 3,9
     42,1804	     305,487	 4,7	     304,168	 4,2
     42,1833	     304,473	 4,6	     303,537	 4,2
     42,1862	     304,169	 4,7	     302,851	 4,8
     42,1891	     303,636	 5,1	     302,222	 4,5
     42,1921	     303,054	 5,3	     301,482	 4,6
      42,195	     302,271	 5,7	     300,841	 5,0
     42,1979	     301,856	 5,8	     300,439	 5,3
     42,2009	     301,195	 5,9	     299,764	 5,3
     42,2038	     300,482	 6,2	     299,068	 6,0
     42,2067	     299,743	 6,3	     298,568	 6,0
     42,2097	     299,123	 6,4	      298,16	 6,6
     42,2126	     298,458	 6,6	     297,874	 6,5
     42,2155	     298,009	 6,8	     296,902	 6,6
     42,2185	     297,209	 7,0	     296,752	 7,1
     42,2214	     296,651	 7,1	     296,563	 7,2
     42,2243	     296,228	 7,0	     295,971	 7,5
     42,2273	     295,836	 7,3	     295,481	 7,1
     42,2302	     295,505	 7,7	     294,729	 7,7
     42,2331	     294,457	 7,9	     294,187	 8,0
     42,2361	     293,882	 8,0	     293,599	 7,8
      42,239	     293,652	 8,0	     292,854	 8,4
     42,2419	     293,073	 8,5	     292,336	 8,2
     42,2449	     292,492	 8,7	     291,939	 8,3
     42,2478	     291,723	 8,7	     291,153	 8,6
     42,2507	     291,393	 9,1	     290,586	 8,6
     42,2537	     290,854	 9,5	     289,925	 9,0
     42,2566	     289,783	 9,5	     289,411	 9,1
     42,2595	     289,189	 9,3	     288,832	 9,7
     42,2625	      288,72	 9,9	     288,217	 9,7
     42,2654	     287,814	 9,9	     287,621	 9,6
     42,2683	     287,117	10,1	     287,173	10,3
     42,2713	     286,518	10,1	     286,947	10,1
     42,2742	      285,96	10,1	     286,438	10,7
     42,2771	     285,613	10,6	     285,344	10,8
     42,2801	      285,15	10,8	     285,217	10,5
      42,283	     284,871	11,0	     284,661	11,4
     42,2859	     284,213	10,9	     284,282	10,8
     42,2889	     283,134	10,8	     283,471	11,2
     42,2918	     282,765	11,7	     282,881	11,1
     42,2947	     282,453	11,5	     282,598	11,4
     42,2977	     281,691	12,2	     281,707	11,6
     42,3006	     281,332	12,2	     281,096	11,5
     42,3035	     280,822	12,1	     280,404	12,2
     42,3064	     279,878	12,8	     280,001	12,0
     42,3094	     278,887	12,4	     279,047	11,9
     42,3123	     278,559	12,9	     278,428	12,4
     42,3153	      277,72	13,0	     278,017	12,5
     42,3182	     277,103	13,0	     276,963	13,1
     42,3211	     276,539	13,2	     277,001	13,0
      42,324	     276,154	13,1	     276,575	13,4
      42,327	     275,722	13,5	     276,171	13,4
     42,3299	     274,926	13,4	     275,522	13,6
     42,3328	     274,524	13,7	     274,926	14,0
     42,3358	     274,139	13,9	     274,487	13,8
     42,3387	     273,529	14,4	     273,449	13,9
     42,3416	     272,579	14,6	     272,786	14,0
     42,3446	     272,194	14,6	     272,275	14,1
     42,3475	     271,267	14,8	     271,786	14,8
     42,3504	     270,533	14,7	     271,258	14,5
     42,3534	     269,918	14,9	      270,84	15,2
     42,3563	     269,281	14,8	     270,585	15,1
     42,3592	     268,994	15,0	     269,622	15,5
     42,3622	     268,509	15,3	     269,534	15,7
     42,3651	     268,153	15,6	     268,832	15,4
      42,368	     267,577	15,9	     267,966	16,3
      42,371	     267,017	15,8	     267,368	15,5
     42,3739	     266,356	16,3	     266,529	15,9
     42,3768	     265,558	16,1	     265,784	15,6
     42,3798	     264,718	16,7	     265,341	16,3
     42,3827	     264,481	17,1	     264,618	16,4
     42,3856	     263,565	16,7	     263,942	16,6
     42,3886	     262,822	17,2	     263,549	16,9
     42,3915	     262,381	16,6	     263,348	17,2
     42,3944	     261,624	17,3	     262,543	17,6
     42,3974	     261,283	17,1	     262,286	17,2
     42,4003	     260,957	17,2	     261,733	17,9
     42,4032	     260,422	17,8	     261,202	17,2
     42,4062	     259,788	18,0	     260,266	17,7
     42,4091	     259,339	17,9	     259,684	17,9
      42,412	     258,602	18,0	     258,863	17,8
      42,415	      257,77	18,6	     258,498	18,2
     42,4179	     256,941	18,2	     257,813	18,1
     42,4208	     256,336	18,6	     257,163	18,7
     42,4238	     255,537	18,6	     256,781	18,6
     42,4267	     255,388	18,5	     256,571	19,3
     42,4296	     255,133	18,7	     256,244	18,7
     42,4326	      254,64	19,5	      255,48	19,4
     42,4355	     253,807	19,4	      255,11	19,2
     42,4384	     253,279	19,4	     253,967	19,2
     42,4413	     252,326	19,7	     253,672	19,7
     42,4443	     251,759	19,5	     252,842	19,4
     42,4472	     251,125	20,0	     252,096	20,0
     42,4501	      250,56	19,8	      251,73	19,9
     42,4531	     250,118	20,2	     251,361	20,5
      42,456	     249,926	20,1	     250,975	20,3
     42,4589	     248,913	20,0	     250,009	20,3
     42,4619	     248,704	20,7	     249,896	20,6
     42,4648	     248,235	20,6	     249,324	20,7
     42,4677	     247,456	21,1	     248,421	20,7
     42,4707	     246,583	21,0	     247,448	20,8
     42,4736	      246,18	21,6	     246,902	21,1
     42,4765	      245,17	21,1	     246,313	21,0
     42,4795	     244,815	21,6	     245,924	21,6
     42,4824	     244,662	21,2	     245,958	21,5
     42,4853	      243,69	21,7	     245,399	21,7
     42,4883	     243,456	21,8	     244,702	22,0
     42,4912	     243,042	22,2	     244,072	22,1
     42,4941	     241,945	22,2	     243,322	21,9
     42,4971	     241,147	22,5	      242,82	22,0
        42,5	     240,573	22,8	     242,116	22,3
     42,5029	     240,256	22,3	     241,372	22,4
     42,5059	     239,994	22,3	     241,201	22,7
     42,5088	     239,233	22,6	     240,299	22,6
     42,5117	      238,77	23,2	     239,846	23,3
     42,5147	     238,257	23,2	     239,744	23,0
     42,5176	     237,367	23,5	     239,069	23,3
     42,5205	     236,548	23,0	     238,204	23,0
     42,5235	     235,977	23,8	     237,472	23,5
     42,5264	     235,391	23,3	     236,846	23,4
     42,5293	     235,203	23,9	     236,298	24,0
     42,5323	     234,282	23,6	     236,315	23,8
     42,5352	     234,055	24,1	     235,797	24,1
     42,5381	     233,499	24,1	     234,868	24,5
     42,5411	     232,674	24,5	      234,56	24,5
      42,544	     231,784	24,2	     233,786	24,1
     42,5469	      231,34	24,5	     233,419	24,3
     42,5499	     230,635	24,5	     232,412	24,7
     42,5528	     230,646	24,6	     231,776	24,7
     42,5557	     229,728	24,8	     231,702	25,0
     42,5587	     229,703	24,9	     230,795	24,9
     42,5616	     228,771	25,1	     230,532	25,4
     42,5645	     227,996	25,6	     230,154	25,2
     42,5674	     227,666	25,7	      229,45	25,4
     42,5704	     226,733	25,7	     228,485	25,2
     42,5733	     226,155	25,7	      228,02	25,7
     42,5762	     226,031	25,3	     227,664	25,6
     42,5792	     225,593	26,1	     227,275	26,2
     42,5821	     224,745	26,1	     226,851	25,8
      42,585	     224,374	26,8	     225,969	26,6
      42,588	     223,494	26,3	     225,639	26,4
     42,5909	     222,782	26,4	     224,785	26,4
     42,5938	     222,703	26,4	     224,266	26,3
     42,5968	     221,835	26,8	     223,404	26,5
     42,5997	     221,739	26,5	      223,35	26,8
     42,6026	     221,177	27,5	     223,038	27,1
     42,6056	     220,322	27,0	     222,509	26,7
     42,6085	       219,6	27,2	     221,535	27,1
     42,6114	     219,068	27,1	     221,252	27,3
     42,6144	     218,708	27,4	     220,327	27,3
     42,6173	     218,639	27,4	     219,962	27,6
     42,6202	     218,132	28,0	      219,52	27,9
     42,6232	     217,465	27,8	     218,743	28,0
     42,6261	     216,524	28,2	      218,58	28,1
      42,629	     215,866	27,8	     218,156	27,9
      42,632	     215,421	28,3	     217,181	28,0
     42,6349	     215,351	28,1	     216,543	28,1
     42,6378	     214,439	28,2	      215,95	28,1
     42,6408	     214,321	28,3	     215,705	28,6
     42,6437	      213,38	28,8	     215,422	28,7
     42,6466	     213,078	29,0	     214,649	28,5
     42,6496	     211,882	29,2	     214,378	28,6
     42,6525	     211,365	28,7	     213,537	29,1
     42,6554	     211,332	29,2	     212,681	29,0
     42,6584	     211,322	29,2	     212,554	29,2
     42,6613	     210,529	29,4	      211,61	29,2
     42,6642	     209,598	29,4	     211,503	29,7
     42,6672	     208,613	29,6	       210,9	29,5
     42,6701	     208,234	29,6	     209,994	29,3
      42,673	     207,806	30,0	      209,74	29,4
      42,676	     207,884	29,7	     208,846	29,9
     42,6789	     207,297	30,4	     208,435	30,0
     42,6818	     206,548	30,2	     208,553	30,3
     42,6847	     205,637	30,2	      207,87	30,2
     42,6877	     205,168	30,1	     207,242	29,9
     42,6906	     205,119	30,3	     206,291	30,4
     42,6936	     205,016	30,6	     205,855	30,4
     42,6965	     204,046	31,0	     205,495	30,6
     42,6994	     203,378	30,8	     205,475	30,4
     42,7023	     202,507	31,1	     204,598	30,9
     42,7053	     202,311	31,0	     204,182	30,8
     42,7082	     202,065	31,0	       203,3	31,1
     42,7111	     201,337	31,0	     202,776	30,9
     42,7141	     200,965	31,5	     202,636	31,6
      42,717	     200,066	31,6	     201,857	31,4
     42,7199	     199,382	31,2	     201,342	31,6
     42,7229	     199,366	31,6	      200,89	31,2
     42,7258	     198,458	31,6	     200,079	31,8
     42,7287	     198,498	31,9	     199,774	31,7
     42,7317	     197,826	31,9	     198,873	31,8
     42,7346	     197,178	32,2	     198,865	31,8
     42,7375	     196,388	32,0	     198,498	32,3
     42,7405	     195,956	32,4	     197,546	32,1
     42,7434	     195,905	32,0	     197,171	32,2
     42,7463	     195,336	32,8	      196,51	32,1
     42,7493	     194,236	32,5	     196,252	32,6
     42,7522	     193,839	33,1	     195,742	32,7
     42,7551	     193,364	32,6	     195,406	33,1
     42,7581	     193,233	33,0	     194,824	32,6
      42,761	     192,926	33,1	     194,114	32,8
     42,7639	     191,819	33,1	     193,729	33,3
     42,7669	     191,705	33,2	     192,849	33,2
     42,7698	     190,721	33,2	     192,885	33,2
     42,7727	     190,669	33,5	     192,142	33,0
     42,7757	     190,602	33,4	     191,571	33,3
     42,7786	     189,953	33,8	     191,151	33,4
     42,7815	     188,992	33,7	     190,825	33,9
     42,7845	     188,279	34,0	     190,519	33,6
     42,7874	     188,309	33,6	     189,619	33,7
     42,7903	     187,911	34,1	     189,235	33,6
     42,7933	     187,535	33,9	     188,231	34,3
     42,7962	     186,659	34,5	     188,118	34,2
     42,7991	     185,793	34,5	     188,002	34,1
     42,8021	     185,839	34,1	     187,176	34,3
      42,805	     185,676	34,8	     186,827	34,2
     42,8079	     185,009	34,6	     185,943	34,4
     42,8109	     184,301	34,9	     185,565	34,5
     42,8138	     183,428	34,7	     185,348	35,1
     42,8167	     182,795	35,0	     184,885	35,0
     42,8196	      182,95	34,6	     184,619	35,0
     42,8226	      182,65	35,4	     183,694	34,5
     42,8255	     181,633	35,4	     182,925	35,2
     42,8284	     181,174	35,5	     182,824	35,0
     42,8314	     180,552	35,2	     182,516	35,2
     42,8343	     180,626	35,5	     181,928	35,2
     42,8372	     180,068	35,8	      181,13	35,5
     42,8402	     179,275	35,7	     180,568	35,6
     42,8431	     178,824	36,2	     180,584	35,6
      42,846	     178,437	35,6	     179,911	35,8
      42,849	     178,108	36,0	     179,533	35,6
     42,8519	     177,514	36,1	     178,696	36,2
     42,8548	     177,174	36,4	      178,28	36,0
     42,8578	     176,293	36,3	     178,171	36,3
     42,8607	      176,09	35,9	     177,421	36,2
     42,8636	     176,026	36,6	     177,093	36,4
     42,8666	     175,184	36,3	     176,267	36,4
     42,8695	     174,834	36,8	     175,937	36,3
     42,8724	     173,879	36,2	     175,874	36,9
     42,8754	     173,699	36,9	     175,205	36,5
     42,8783	     173,582	36,9	     174,624	36,8
     42,8812	     172,512	36,9	     173,667	36,4
     42,8842	     172,241	36,9	     173,405	37,3
     42,8871	     171,662	36,9	     173,596	37,1
       42,89	     171,777	37,5	     173,021	37,0
      42,893	     171,146	37,2	     171,916	37,3
     42,8959	     170,211	37,5	     171,305	37,1
     42,8988	     169,677	37,2	     171,024	37,7
     42,9018	      169,53	37,5	     171,277	37,1
     42,9047	     169,365	37,9	     170,371	37,4
     42,9076	       168,5	37,4	     170,024	37,2
     42,9106	     168,305	38,0	     168,813	37,9
     42,9135	     167,528	37,6	     168,957	37,8
     42,9164	     167,624	38,0	     168,758	37,8
     42,9194	     167,376	38,2	     168,465	37,7
     42,9223	     166,011	37,9	     167,212	37,9
     42,9252	     165,627	38,1	     166,758	38,3
     42,9282	      165,43	38,2	     167,061	37,9
     42,9311	     165,603	38,4	     166,357	38,1
      42,934	     164,728	38,2	     166,266	38,0
      42,937	      163,79	38,6	     164,966	38,2
     42,9399	     163,489	38,2	      164,58	38,7
     42,9428	      163,62	38,7	     164,761	37,8
     42,9457	     162,893	39,0	     164,034	38,5
     42,9487	     162,401	38,8	      162,77	38,4
     42,9516	     161,709	39,0	     163,013	39,3
     42,9545	     161,803	38,7	     163,077	38,7
     42,9575	     161,268	39,2	       162,4	38,5
     42,9604	     160,355	39,4	     161,664	38,5
     42,9633	     159,831	39,3	     160,796	39,1
     42,9663	     159,876	39,3	     161,061	39,5
     42,9692	     159,741	39,2	     160,674	39,2
     42,9721	      159,28	39,8	     160,228	39,4
     42,9751	     158,317	39,3	     159,281	39,5
      42,978	     158,134	39,3	     159,185	39,5
     42,9809	     157,795	39,7	     159,005	39,7
     42,9839	     157,179	39,4	     158,537	39,5
     42,9868	     156,629	40,0	      157,54	39,9
     42,9897	     156,216	39,6	     157,118	39,8
     42,9927	     156,421	40,2	     156,757	40,3
     42,9956	     155,611	40,1	     156,996	39,7
     42,9985	     155,009	40,0	     155,834	40,1
     43,0015	     154,613	40,4	     155,185	40,4
     43,0044	     154,636	40,0	     155,552	40,1
     43,0073	     153,648	40,6	     155,016	40,5
     43,0103	     153,329	40,4	     154,635	39,8
     43,0132	     152,738	40,4	      153,35	40,6
     43,0161	      153,11	40,7	     153,389	40,6
     43,0191	     152,283	40,8	     153,468	40,3
      43,022	      151,43	40,7	     152,981	40,6
     43,0249	     151,145	40,6	     151,796	40,3
     43,0279	     151,217	40,8	      151,74	41,0
     43,0308	     150,743	41,1	     151,821	40,6
     43,0337	     149,768	40,8	     151,582	40,9
     43,0367	     149,486	41,3	     149,965	41,1
     43,0396	     149,723	40,9	     149,997	41,1
     43,0425	     149,066	41,2	     150,422	40,8
     43,0455	     148,236	41,4	     149,183	41,3
     43,0484	     148,365	41,3	      148,88	41,1
     43,0513	     147,746	41,6	     148,167	41,8
     43,0543	     147,418	41,6	     148,511	41,1
     43,0572	     146,579	41,4	     147,639	41,3
     43,0601	     146,809	41,8	     146,756	41,7
      43,063	     146,395	41,4	     146,491	41,7
      43,066	      145,83	42,0	     146,707	42,1
     43,0689	     145,214	41,9	     146,382	41,4
     43,0718	     145,095	41,6	      145,46	41,9
     43,0748	     144,663	42,3	     144,575	41,6
     43,0777	     144,155	41,9	     145,233	41,8
     43,0806	     143,215	42,1	     144,685	42,0
     43,0836	     143,643	42,1	     143,514	41,9
     43,0865	     142,933	42,2	     143,989	42,1
     43,0894	     142,391	42,7	     143,556	42,0
     43,0924	     141,954	42,4	     143,011	42,1
     43,0953	     141,992	42,2	     142,139	42,7
     43,0982	     141,101	42,7	      141,66	42,3
     43,1012	     140,755	42,3	     142,173	42,5
     43,1041	      140,51	42,7	     141,068	42,4
      43,107	     140,721	42,7	     140,398	42,4
       43,11	     140,087	42,9	     141,122	42,7
     43,1129	      139,28	43,0	     140,696	42,7
     43,1158	     139,418	42,5	     139,704	42,6
     43,1188	     138,827	42,9	      139,18	43,2
     43,1217	     137,874	43,3	     139,474	42,5
     43,1246	     137,719	42,7	      139,16	43,1
     43,1276	      137,94	43,3	     137,859	42,7
     43,1305	     137,265	43,5	     137,889	43,0
     43,1334	     136,563	43,1	     137,862	43,3
     43,1364	     136,494	43,3	     137,749	42,8
     43,1393	       136,6	43,2	     136,385	43,4
     43,1422	     135,775	43,6	     136,706	43,6
     43,1452	     135,596	43,6	     136,388	42,8
     43,1481	     135,531	43,6	     135,419	43,5
      43,151	     135,042	43,7	     134,728	43,3
      43,154	     134,075	43,8	     135,197	43,5
     43,1569	      134,38	43,6	     134,728	43,7
     43,1598	     134,025	44,1	     133,985	43,8
     43,1628	     133,237	44,0	     133,539	43,8
     43,1657	     132,988	43,6	     133,682	44,0
     43,1686	     132,687	44,1	     133,134	43,3
     43,1716	     132,743	43,9	     132,673	44,1
     43,1745	     131,395	44,4	     132,733	43,9
     43,1774	     131,544	44,0	     132,246	43,9
     43,1804	     131,779	43,9	     131,321	44,3
     43,1833	     130,546	44,6	     131,433	44,2
     43,1862	     130,281	44,5	     131,292	44,5
     43,1891	     130,379	44,2	     130,718	44,1
     43,1921	     129,793	44,7	     129,934	44,1
      43,195	     129,235	44,5	     130,142	44,6
     43,1979	     129,558	44,3	     129,761	44,4
     43,2009	     129,166	45,0	     128,805	44,1
     43,2038	     128,255	44,8	     128,576	44,9
     43,2067	     127,997	44,6	     128,962	44,4
     43,2097	     128,017	45,0	     128,115	44,3
     43,2126	     127,188	44,7	     127,782	45,1
     43,2155	     126,936	45,1	     127,488	44,6
     43,2185	     126,922	45,0	     127,723	44,8
     43,2214	     126,609	44,8	     126,482	45,2
     43,2243	     125,595	45,0	     126,674	44,9
     43,2273	     125,582	44,8	      126,43	45,1
     43,2302	     125,764	44,9	     125,645	45,0
     43,2331	     124,581	45,5	      125,39	44,9
     43,2361	     124,803	44,9	     125,793	45,1
      43,239	     124,716	45,3	     124,469	45,1
     43,2419	     124,129	45,7	      124,11	45,0
     43,2449	     123,501	45,2	     124,349	45,8
     43,2478	     123,174	45,5	     124,066	45,0
     43,2507	     123,512	45,6	     123,358	45,5
     43,2537	     122,472	45,4	     122,859	45,7
     43,2566	     122,826	45,3	     123,127	45,4
     43,2595	     122,302	46,1	     122,495	45,3
     43,2625	     121,782	45,4	     121,829	45,9
     43,2654	     120,953	45,9	     122,131	45,5
     43,2683	      121,59	45,7	       121,8	45,6
     43,2713	     120,827	45,8	     120,748	46,0
     43,2742	     120,154	46,3	     121,139	45,6
     43,2771	     120,507	46,0	      120,81	45,5
     43,2801	     120,024	45,8	     120,004	46,3
      43,283	     119,432	46,0	     119,772	45,7
     43,2859	     119,674	46,3	     120,071	45,7
     43,2889	     119,364	45,9	     118,887	46,3
     43,2918	     118,224	46,7	     118,736	46,2
     43,2947	     118,472	46,3	     119,264	46,1
     43,2977	     118,442	45,9	      118,07	46,2
     43,3006	     117,649	46,6	     118,006	46,4
     43,3035	     117,417	46,2	     118,143	45,9
     43,3064	     117,447	46,4	     117,628	46,1
     43,3094	     117,058	46,7	     116,835	46,1
     43,3123	     116,336	46,5	     117,407	46,2
     43,3153	     116,563	46,4	     116,253	46,6
     43,3182	     115,749	47,1	     115,987	46,3
     43,3211	     115,644	46,9	     116,118	46,7
      43,324	     115,397	46,6	     115,834	46,5
      43,327	     115,037	46,8	     115,068	46,4
     43,3299	     114,794	46,9	     115,443	46,6
     43,3328	     114,867	46,5	       115,1	46,6
     43,3358	     114,426	47,1	     114,184	46,5
     43,3387	     113,505	47,2	     114,331	46,9
     43,3416	     113,857	46,6	     114,009	46,7
     43,3446	     113,562	47,2	     113,088	46,8
     43,3475	      112,65	47,1	     113,011	47,4
     43,3504	     112,916	46,9	     113,429	46,7
     43,3534	     112,705	47,4	      112,41	46,8
     43,3563	     111,646	47,4	      112,07	47,5
     43,3592	     112,306	47,1	     112,533	47,1
     43,3622	     112,064	47,3	     111,633	46,9
     43,3651	     110,743	47,7	     111,797	47,1
      43,368	     111,295	46,9	     111,521	47,2
      43,371	     110,843	47,4	     110,971	46,7
     43,3739	     110,341	47,6	     110,505	47,5
     43,3768	     109,989	47,1	     110,939	47,6
     43,3798	      110,26	47,6	     109,585	47,4
     43,3827	     109,183	48,0	     109,493	47,7
     43,3856	      109,77	47,4	     109,961	47,5
     43,3886	     109,293	47,5	     109,012	47,4
     43,3915	     108,573	48,1	     109,039	47,5
     43,3944	     108,411	47,3	     108,979	47,3
     43,3974	      108,48	47,7	     108,447	47,4
     43,4003	     107,681	48,1	     107,969	47,6
     43,4032	     107,532	47,6	      108,27	47,5
     43,4062	     107,859	47,8	     107,091	48,2
     43,4091	      106,75	48,1	     107,012	47,8
      43,412	     107,085	48,0	     107,585	47,7
      43,415	     106,684	47,9	     106,414	48,0
     43,4179	     106,147	47,8	     106,658	47,8
     43,4208	     106,315	47,9	     106,292	47,6
     43,4238	     106,023	48,1	     105,628	48,2
     43,4267	     105,248	47,8	     105,952	48,1
     43,4296	     105,251	48,2	     105,547	47,8
     43,4326	     105,244	48,1	     104,688	48,3
     43,4355	     104,465	48,1	     105,285	48,2
     43,4384	     105,065	48,2	     104,593	47,6
     43,4413	       104,2	48,7	     104,192	48,4
     43,4443	     103,873	48,2	     104,183	48,3
     43,4472	     103,913	48,6	     104,035	47,5
     43,4501	     103,411	48,6	     103,292	48,5
     43,4531	     103,064	48,1	     103,668	48,4
      43,456	     103,216	48,4	     103,191	48,0
     43,4589	      102,35	48,9	      102,84	48,4
     43,4619	     102,244	48,2	     102,965	48,3
     43,4648	     102,595	48,5	     102,127	48,2
     43,4677	     101,624	49,1	     101,855	48,4
     43,4707	     101,783	48,5	     102,376	48,4
     43,4736	     101,709	48,6	     101,229	48,7
     43,4765	     100,963	48,8	     101,519	48,4
     43,4795	     100,929	48,5	      101,59	48,7
     43,4824	     101,137	48,6	     100,501	48,7
     43,4853	     100,052	49,0	     100,876	48,6
     43,4883	     100,728	48,8	      100,31	48,4
     43,4912	      100,41	48,7	     99,9149	49,2
     43,4941	     99,3495	49,1	     99,9613	48,8
     43,4971	      99,982	49,0	     99,4335	48,3
        43,5	     99,8314	49,0	     99,7244	49,4

