X-Data [Hz]	Piezo (M - Filtered) [mV]	Phase [Deg]	Piezo (M - Filtered) [mV]	Phase [Deg]	
	002: [07-10-24 09:58]		003: [07-10-24 10:01]	
        41,5	      120,23	-100,8	     136,473	-103,5
      41,502	     122,475	-103,6	     133,691	-106,0
     41,5039	     123,311	-99,6	     132,996	-103,6
     41,5059	     129,132	-103,6	       133,9	-104,2
     41,5078	     129,727	-101,4	     134,688	-104,3
     41,5098	     132,201	-105,5	     133,569	-104,0
     41,5117	     131,518	-103,8	      134,78	-106,0
     41,5137	     133,181	-102,9	     131,735	-101,3
     41,5156	     133,119	-104,2	     134,727	-104,8
     41,5176	      132,49	-101,8	     133,665	-100,2
     41,5196	     133,781	-105,1	     134,752	-102,4
     41,5215	     132,924	-104,4	     134,991	-101,3
     41,5235	     134,264	-102,7	     133,289	-100,3
     41,5254	     132,876	-100,3	     136,806	-103,7
     41,5274	     133,005	-100,0	     135,172	-100,9
     41,5293	     134,745	-102,9	      136,98	-104,8
     41,5313	     133,469	-99,9	      137,12	-104,5
     41,5332	     135,632	-102,6	     136,325	-103,3
     41,5352	     134,944	-100,3	     137,982	-104,2
     41,5371	      134,94	-100,1	      136,08	-101,3
     41,5391	     135,314	-103,8	      138,08	-104,3
     41,5411	     134,143	-101,0	     138,953	-103,9
      41,543	     137,815	-104,5	     137,857	-104,0
      41,545	     136,665	-102,7	     140,302	-105,3
     41,5469	     137,503	-103,2	     137,471	-100,0
     41,5489	       137,6	-104,1	     138,698	-102,7
     41,5508	     136,887	-101,4	     138,389	-100,0
     41,5528	     138,703	-104,0	      141,23	-104,6
     41,5547	     136,902	-99,4	      140,06	-102,7
     41,5567	     138,624	-101,9	     138,844	-99,4
     41,5587	     137,202	-100,1	     140,806	-103,1
     41,5606	     138,266	-100,6	     139,615	-99,4
     41,5626	     139,016	-102,6	     142,707	-104,9
     41,5645	     138,225	-101,1	     142,005	-102,7
     41,5665	     140,348	-104,5	     141,442	-103,0
     41,5684	     138,697	-102,5	     143,216	-104,5
     41,5704	     140,745	-102,2	     140,521	-99,9
     41,5723	     141,294	-103,6	     142,883	-103,3
     41,5743	     140,184	-101,1	     141,313	-99,7
     41,5762	     141,505	-103,5	     143,943	-103,6
     41,5782	     140,203	-98,6	     143,932	-102,3
     41,5802	     141,775	-101,2	     143,086	-102,1
     41,5821	     140,446	-100,7	     144,996	-103,9
     41,5841	     140,872	-99,7	     142,622	-100,3
      41,586	     141,863	-102,4	     144,099	-102,4
      41,588	     141,161	-99,5	     143,741	-99,8
     41,5899	     144,203	-103,3	     142,924	-99,8
     41,5919	     142,453	-102,1	     145,355	-101,4
     41,5938	      144,59	-103,1	     143,941	-99,5
     41,5958	     144,928	-104,0	     147,555	-104,3
     41,5978	     144,473	-99,5	     145,114	-100,3
     41,5997	      146,14	-102,7	     146,816	-103,2
     41,6017	      145,33	-102,6	     148,437	-103,1
     41,6036	     144,897	-101,7	     146,538	-101,0
     41,6056	     145,415	-103,3	      148,41	-103,3
     41,6075	     144,066	-99,5	     146,544	-98,4
     41,6095	     146,414	-101,4	     147,074	-101,2
     41,6114	     145,545	-99,4	     147,815	-99,3
     41,6134	     145,437	-98,7	     146,721	-98,2
     41,6153	     146,049	-101,3	      150,28	-101,7
     41,6173	     145,386	-100,1	     148,163	-99,5
     41,6193	     148,281	-103,0	     151,825	-103,0
     41,6212	     147,284	-100,2	     150,573	-100,4
     41,6232	     149,303	-102,3	      151,76	-103,1
     41,6251	     148,918	-101,8	      152,14	-103,0
     41,6271	     147,419	-99,3	     149,769	-99,7
      41,629	     149,569	-103,3	     150,956	-102,6
      41,631	     148,729	-102,0	     150,249	-98,8
     41,6329	     150,706	-101,9	     150,655	-99,6
     41,6349	     150,202	-103,1	      153,39	-100,1
     41,6369	     149,631	-99,9	     152,067	-97,1
     41,6388	     151,033	-103,2	     154,324	-103,2
     41,6408	     149,227	-98,9	     153,405	-100,2
     41,6427	     151,368	-100,9	     151,799	-98,8
     41,6447	     150,479	-98,7	     154,472	-101,8
     41,6466	     150,577	-97,9	     153,518	-99,0
     41,6486	     151,949	-102,3	     156,293	-102,2
     41,6505	     151,133	-99,9	     156,138	-101,7
     41,6525	     154,403	-102,8	     154,708	-101,3
     41,6544	     153,763	-100,9	     156,403	-103,0
     41,6564	     151,606	-99,7	      153,14	-98,2
     41,6584	     153,611	-102,2	     155,241	-100,5
     41,6603	     153,144	-100,0	     155,236	-97,7
     41,6623	     156,292	-101,2	     155,613	-98,9
     41,6642	     157,136	-102,5	     158,048	-100,4
     41,6662	     155,853	-99,1	     156,043	-97,6
     41,6681	     156,932	-101,6	     160,354	-102,2
     41,6701	     154,289	-97,9	     159,125	-99,2
      41,672	      155,97	-98,8	      158,87	-101,0
      41,674	     155,282	-100,1	     160,198	-102,6
      41,676	     156,105	-98,2	     158,334	-99,3
     41,6779	     157,142	-101,0	     160,136	-102,1
     41,6799	     156,416	-98,2	     158,896	-96,6
     41,6818	     159,726	-101,4	     159,555	-97,7
     41,6838	     158,215	-100,9	     161,339	-100,9
     41,6857	     159,987	-100,5	     159,673	-96,8
     41,6877	     160,439	-102,1	     159,651	-99,1
     41,6896	     158,274	-97,2	     161,082	-98,8
     41,6916	     160,637	-99,0	     160,855	-97,9
     41,6936	     161,726	-101,6	     165,335	-100,7
     41,6955	     159,947	-98,5	     164,649	-98,4
     41,6975	     161,554	-100,6	     163,948	-101,1
     41,6994	     159,804	-98,6	      165,27	-101,9
     41,7014	      160,88	-98,4	     163,597	-99,0
     41,7033	     162,502	-100,2	     165,911	-101,8
     41,7053	     161,837	-97,4	       163,8	-97,0
     41,7072	     163,978	-101,7	      165,36	-98,8
     41,7092	     162,815	-101,1	     166,138	-98,3
     41,7111	     163,227	-99,4	      164,67	-97,6
     41,7131	     162,279	-98,9	     167,952	-101,6
     41,7151	     162,257	-96,6	     167,803	-99,1
      41,717	     164,496	-98,0	      168,46	-100,5
      41,719	     165,511	-98,0	     169,868	-100,6
     41,7209	     165,212	-97,2	     167,767	-98,4
     41,7229	     167,244	-101,3	     169,684	-101,0
     41,7248	     165,515	-97,9	     167,549	-96,3
     41,7268	     167,768	-100,1	     168,099	-97,7
     41,7287	     166,925	-99,7	     170,237	-98,4
     41,7307	     168,066	-98,8	     168,793	-96,6
     41,7327	     168,551	-100,8	     172,782	-100,9
     41,7346	     167,378	-97,1	     171,792	-98,4
     41,7366	     168,536	-98,9	     171,369	-99,5
     41,7385	     167,721	-96,7	     173,824	-101,3
     41,7405	     169,182	-96,3	      174,14	-100,0
     41,7424	     170,656	-97,9	     172,201	-98,2
     41,7444	     169,602	-98,3	     174,412	-100,4
     41,7463	     169,634	-96,0	     172,437	-96,4
     41,7483	      172,22	-100,6	     174,544	-99,4
     41,7502	     170,404	-98,6	      173,98	-96,9
     41,7522	     173,247	-99,7	      174,08	-97,1
     41,7542	     170,242	-96,4	      177,56	-98,7
     41,7561	      171,71	-96,6	     175,597	-96,6
     41,7581	     174,417	-99,0	     178,033	-100,1
       41,76	     173,209	-96,5	     179,198	-99,8
      41,762	     174,257	-97,6	      177,03	-97,7
     41,7639	     173,647	-98,1	     178,644	-100,1
     41,7659	     173,753	-95,8	     176,417	-94,7
     41,7678	     177,071	-99,4	     177,249	-97,3
     41,7698	     176,485	-98,8	     180,044	-96,5
     41,7718	     177,735	-98,6	      179,04	-95,0
     41,7737	     178,558	-100,1	     182,644	-100,0
     41,7757	     176,818	-95,9	     181,989	-98,2
     41,7776	      178,19	-97,5	     180,919	-98,6
     41,7796	     176,768	-96,4	     183,274	-99,8
     41,7815	      176,51	-94,7	     180,815	-94,9
     41,7835	     179,283	-99,9	     180,963	-95,4
     41,7854	     178,307	-97,1	     184,373	-97,4
     41,7874	     181,506	-99,4	     182,935	-95,4
     41,7893	     181,531	-99,4	     186,219	-99,9
     41,7913	     179,414	-95,6	     186,421	-98,5
     41,7933	     181,899	-97,6	     184,993	-97,6
     41,7952	     180,728	-95,8	     186,878	-99,4
     41,7972	     181,804	-95,6	      184,52	-94,6
     41,7991	     183,645	-99,3	     186,112	-97,1
     41,8011	      182,63	-97,3	     188,514	-96,3
      41,803	     184,174	-98,7	     186,516	-94,8
      41,805	     184,058	-97,8	     189,864	-98,7
     41,8069	     184,869	-96,0	     189,103	-97,0
     41,8089	     186,637	-97,5	     187,524	-96,0
     41,8109	     185,182	-95,8	     190,949	-98,1
     41,8128	      186,27	-95,9	     189,183	-93,7
     41,8148	     187,174	-97,2	     189,275	-95,1
     41,8167	     185,822	-95,4	     192,804	-97,8
     41,8187	     189,027	-98,1	     191,487	-95,4
     41,8206	     188,808	-97,0	     194,685	-98,4
     41,8226	      188,65	-95,0	     194,694	-97,0
     41,8245	     190,919	-98,0	       193,7	-95,8
     41,8265	      189,07	-95,7	     195,359	-97,6
     41,8284	     190,139	-95,8	     193,092	-94,4
     41,8304	     192,204	-97,2	     194,758	-95,5
     41,8324	     190,264	-94,1	     197,366	-95,4
     41,8343	     191,392	-94,2	     195,797	-94,3
     41,8363	     191,409	-96,1	     198,302	-97,7
     41,8382	      191,99	-94,8	     198,753	-96,8
     41,8402	     194,077	-98,6	     197,109	-95,5
     41,8421	     193,438	-96,5	     199,659	-97,5
     41,8441	     194,992	-95,7	     200,684	-96,5
      41,846	     196,468	-96,4	      198,75	-95,9
      41,848	     194,193	-93,7	     201,394	-97,4
       41,85	      195,89	-93,6	     200,176	-92,7
     41,8519	     197,677	-96,9	     200,509	-94,4
     41,8539	     196,192	-94,7	     204,271	-95,4
     41,8558	     199,264	-97,4	     202,311	-94,5
     41,8578	     198,797	-96,8	     203,889	-96,2
     41,8597	     198,934	-94,0	     203,061	-94,2
     41,8617	     200,548	-96,1	     203,807	-94,0
     41,8636	     198,632	-93,5	     207,596	-96,6
     41,8656	     200,813	-93,3	     206,889	-94,2
     41,8675	     202,271	-95,6	     206,746	-95,4
     41,8695	     201,106	-94,0	     208,855	-95,7
     41,8715	     201,835	-94,0	     207,098	-93,3
     41,8734	     202,415	-95,1	     207,956	-96,0
     41,8754	     201,741	-93,8	     209,913	-93,6
     41,8773	     205,266	-95,5	     209,154	-92,7
     41,8793	     205,789	-95,8	     212,727	-95,3
     41,8812	     204,831	-93,5	     211,968	-93,9
     41,8832	     206,698	-96,1	     210,776	-94,2
     41,8851	     205,815	-94,0	     212,717	-95,1
     41,8871	     208,649	-94,7	     212,529	-92,9
     41,8891	     208,967	-95,6	     212,515	-92,9
      41,891	     207,743	-93,7	     216,937	-95,5
      41,893	     210,662	-94,8	      215,36	-93,0
     41,8949	     211,012	-95,3	     216,074	-94,9
     41,8969	     209,928	-93,2	     217,777	-95,2
     41,8988	     212,153	-94,1	      217,53	-92,3
     41,9008	     210,781	-93,9	     219,075	-94,6
     41,9027	     210,822	-92,3	     221,164	-94,9
     41,9047	     213,999	-94,6	      218,64	-91,4
     41,9066	     213,712	-94,2	      220,12	-93,1
     41,9086	     214,475	-93,2	     222,709	-93,0
     41,9106	     216,191	-94,8	     222,769	-92,9
     41,9125	     214,658	-91,8	     224,455	-94,8
     41,9145	     216,732	-93,2	     221,975	-90,1
     41,9164	     216,857	-92,3	     221,755	-91,0
     41,9184	     216,944	-91,4	     226,801	-93,7
     41,9203	     220,373	-94,5	     226,366	-92,7
     41,9223	     219,684	-93,5	     228,577	-94,4
     41,9242	     220,111	-92,8	     230,223	-94,8
     41,9262	     222,081	-93,8	     226,897	-90,9
     41,9282	     221,142	-92,0	     229,017	-92,9
     41,9301	     222,636	-91,3	      229,26	-90,6
     41,9321	     224,695	-93,5	     227,713	-90,0
      41,934	     222,881	-90,7	     232,902	-94,3
      41,936	     222,846	-90,8	     233,553	-93,2
     41,9379	     225,718	-92,9	     233,033	-92,1
     41,9399	     224,503	-91,1	     236,018	-94,2
     41,9418	     227,567	-92,7	     233,856	-89,6
     41,9438	     228,386	-93,7	     233,775	-89,2
     41,9457	     226,314	-91,4	     237,617	-91,5
     41,9477	     227,587	-91,1	     236,881	-89,6
     41,9497	     229,927	-91,4	     236,588	-88,8
     41,9516	     229,717	-90,2	     241,425	-93,2
     41,9536	     232,994	-92,9	     240,514	-91,2
     41,9555	     233,359	-91,6	     241,382	-91,8
     41,9575	     232,869	-91,3	     243,771	-92,7
     41,9594	     234,901	-92,1	     242,338	-88,5
     41,9614	     232,867	-90,0	     242,735	-89,2
     41,9633	     234,248	-90,2	     245,807	-90,4
     41,9653	     236,579	-91,2	     244,713	-88,6
     41,9673	     236,545	-90,0	     247,286	-91,7
     41,9692	     239,978	-90,9	     249,175	-91,6
     41,9712	     240,896	-91,6	     246,338	-89,6
     41,9731	     239,843	-91,3	     249,027	-91,8
     41,9751	      241,67	-91,3	      249,93	-88,8
      41,977	     242,968	-92,1	     248,858	-87,6
      41,979	     240,555	-88,9	     253,509	-91,2
     41,9809	     241,747	-89,0	     254,525	-90,2
     41,9829	     243,061	-90,6	     253,267	-87,7
     41,9848	     243,158	-88,2	     254,813	-89,4
     41,9868	     247,195	-90,6	     256,233	-88,9
     41,9888	     247,238	-90,7	     255,589	-87,6
     41,9907	      247,62	-89,0	     259,205	-91,1
     41,9927	     250,127	-90,6	     260,306	-90,3
     41,9946	     250,658	-91,2	     259,211	-88,7
     41,9966	     249,468	-88,0	      261,25	-90,2
     41,9985	     250,718	-88,9	      260,23	-87,0
     42,0005	     250,938	-89,5	     261,237	-86,9
     42,0024	     251,016	-87,6	     265,779	-89,2
     42,0044	     254,819	-89,1	     265,736	-87,7
     42,0064	     253,423	-88,1	      267,36	-90,2
     42,0083	     254,478	-86,6	     269,681	-89,6
     42,0103	     257,781	-90,9	     269,817	-89,1
     42,0122	     256,769	-88,9	     269,148	-87,8
     42,0142	     257,509	-87,8	     272,024	-89,2
     42,0161	       260,9	-88,9	     270,346	-85,7
     42,0181	     260,943	-89,1	     271,348	-85,6
       42,02	     261,769	-85,6	     277,534	-88,6
      42,022	     264,093	-88,3	     277,236	-86,2
     42,0239	     262,542	-86,6	     276,393	-87,4
     42,0259	     263,568	-85,5	     278,695	-88,4
     42,0279	     267,327	-88,9	     277,539	-85,2
     42,0298	     267,146	-88,4	     277,464	-85,2
     42,0318	     268,221	-87,0	     282,381	-87,1
     42,0337	     270,361	-88,8	     282,099	-85,4
     42,0357	     268,931	-84,5	     284,382	-86,5
     42,0376	     270,749	-85,0	     287,301	-87,3
     42,0396	     272,648	-87,5	      284,88	-84,3
     42,0415	      272,01	-85,6	     286,514	-85,7
     42,0435	     275,671	-86,7	     290,718	-86,2
     42,0455	     276,731	-87,1	     290,546	-83,9
     42,0474	     275,601	-84,6	     292,152	-86,4
     42,0494	     278,031	-84,5	     294,884	-86,8
     42,0513	      279,31	-86,7	     294,674	-85,2
     42,0533	     279,335	-85,2	     294,597	-84,5
     42,0552	     282,974	-85,3	     297,731	-86,2
     42,0572	     284,445	-86,7	      296,34	-82,9
     42,0591	     282,712	-84,1	     298,074	-82,6
     42,0611	     284,755	-84,7	     303,378	-85,1
      42,063	     286,285	-84,9	     304,448	-83,9
      42,065	      286,06	-83,9	     303,634	-84,4
      42,067	     288,235	-83,4	     307,062	-83,2
     42,0689	     290,758	-85,7	     307,734	-82,1
     42,0709	     290,277	-84,4	     309,567	-82,9
     42,0728	     292,926	-83,9	     311,965	-83,1
     42,0748	     293,767	-84,7	     310,043	-80,9
     42,0767	     293,351	-81,7	     311,209	-80,7
     42,0787	     295,949	-82,4	     316,521	-83,9
     42,0806	     297,496	-84,0	     317,063	-81,7
     42,0826	     296,789	-83,0	     316,326	-81,2
     42,0846	     298,076	-81,3	     321,385	-83,9
     42,0865	     302,114	-84,7	     323,397	-82,2
     42,0885	      302,33	-83,3	     320,904	-80,4
     42,0904	     305,822	-82,3	     325,485	-81,1
     42,0924	     307,612	-83,4	     325,996	-80,6
     42,0943	     305,468	-80,6	     326,398	-80,9
     42,0963	     307,472	-80,1	     329,065	-81,1
     42,0982	     310,169	-82,2	     329,244	-78,5
     42,1002	     310,072	-81,5	     330,237	-79,2
     42,1021	         314	-81,3	     336,198	-81,6
     42,1041	     315,566	-81,8	     336,394	-79,6
     42,1061	      315,32	-81,1	     336,093	-78,7
      42,108	     316,776	-79,9	     340,434	-80,6
       42,11	     319,756	-81,9	     342,509	-80,5
     42,1119	      320,22	-80,8	     340,775	-77,6
     42,1139	      322,39	-79,9	     343,332	-78,4
     42,1158	     324,145	-80,9	     346,829	-77,1
     42,1178	     322,822	-78,6	     347,243	-76,5
     42,1197	     323,682	-77,8	     352,242	-79,2
     42,1217	     327,782	-81,6	     353,885	-78,2
     42,1237	     327,833	-80,0	     354,546	-76,7
     42,1256	     330,522	-78,2	     356,708	-77,6
     42,1276	     333,198	-79,4	     358,792	-78,7
     42,1295	     332,523	-78,5	     359,106	-75,6
     42,1315	      334,72	-77,5	     359,831	-76,0
     42,1334	     338,579	-79,3	     366,306	-77,0
     42,1354	     339,491	-78,1	      364,73	-74,4
     42,1373	     339,331	-77,1	      366,61	-74,8
     42,1393	     343,701	-76,9	     372,663	-75,9
     42,1413	     345,112	-77,5	     372,853	-74,5
     42,1432	     345,188	-74,8	     374,672	-75,3
     42,1452	     347,611	-75,3	     377,625	-75,7
     42,1471	     350,763	-78,2	     378,246	-73,5
     42,1491	     351,113	-76,3	     378,828	-73,7
      42,151	     355,722	-76,3	     385,602	-74,6
      42,153	     357,664	-77,2	     386,928	-73,9
     42,1549	     357,373	-73,4	     387,552	-72,6
     42,1569	     360,618	-73,6	     389,596	-73,2
     42,1588	     362,436	-74,9	     391,531	-70,6
     42,1608	     363,383	-74,0	     392,012	-70,5
     42,1628	     367,834	-73,9	     398,099	-72,9
     42,1647	     369,895	-74,1	     399,881	-72,3
     42,1667	     369,332	-72,9	     398,886	-70,2
     42,1686	     371,541	-72,4	     400,987	-70,4
     42,1706	     375,862	-74,2	     406,686	-71,0
     42,1725	      376,17	-73,6	     408,087	-69,4
     42,1745	     376,954	-71,9	     408,703	-69,1
     42,1764	     382,458	-73,2	     415,106	-71,3
     42,1784	     383,801	-72,8	     416,473	-69,6
     42,1804	     383,182	-70,4	     415,672	-67,4
     42,1823	      385,48	-69,9	     418,295	-68,8
     42,1843	     388,533	-71,0	     422,923	-67,3
     42,1862	     389,295	-69,9	     423,395	-66,1
     42,1882	     394,136	-70,4	     427,537	-68,0
     42,1901	     396,435	-70,9	     430,913	-67,8
     42,1921	     396,612	-69,4	     430,133	-65,1
      42,194	     399,641	-68,5	     432,393	-65,2
      42,196	     402,399	-68,8	     439,093	-67,0
     42,1979	     402,921	-69,3	     440,001	-65,0
     42,1999	     403,895	-68,4	     441,415	-65,4
     42,2019	     409,506	-68,3	     445,664	-66,5
     42,2038	     408,862	-67,0	     446,022	-63,2
     42,2058	     410,805	-66,0	     447,454	-62,9
     42,2077	      416,41	-67,1	      452,86	-63,9
     42,2097	     417,535	-66,9	     455,573	-63,9
     42,2116	     418,294	-64,8	      454,56	-61,4
     42,2136	     420,532	-65,2	     457,364	-61,8
     42,2155	     422,424	-66,2	     462,684	-61,7
     42,2175	     423,734	-65,3	     462,439	-60,1
     42,2195	     425,509	-63,8	     466,564	-62,4
     42,2214	     431,096	-66,0	     470,403	-62,1
     42,2234	     431,951	-65,2	     469,935	-59,3
     42,2253	     433,336	-62,9	     471,602	-59,5
     42,2273	     436,212	-63,4	     477,878	-59,6
     42,2292	     438,421	-63,6	     479,487	-59,4
     42,2312	     439,803	-62,6	     479,048	-57,9
     42,2331	     445,332	-61,8	     482,705	-57,7
     42,2351	      447,11	-62,4	     486,633	-55,8
      42,237	     447,069	-59,8	     487,052	-55,6
      42,239	     450,042	-59,9	     489,889	-56,9
      42,241	     453,414	-61,5	     493,388	-56,1
     42,2429	     454,582	-60,7	     494,893	-56,0
     42,2449	      457,37	-58,9	     493,792	-54,3
     42,2468	     460,605	-59,3	     496,353	-55,3
     42,2488	     461,633	-59,6	     500,876	-53,8
     42,2507	      463,23	-58,6	     500,649	-52,6
     42,2527	     469,149	-58,7	      503,91	-55,0
     42,2546	     471,239	-58,3	     507,495	-54,1
     42,2566	     471,012	-55,5	      506,83	-51,7
     42,2586	     474,114	-55,6	      508,58	-52,1
     42,2605	     476,899	-56,0	     513,246	-52,1
     42,2625	     476,508	-55,7	     514,691	-51,3
     42,2644	     482,208	-54,7	     513,593	-50,2
     42,2664	     484,376	-54,4	     516,367	-50,9
     42,2683	     483,982	-54,6	      519,21	-48,4
     42,2703	     485,579	-53,1	     519,982	-47,8
     42,2722	     492,087	-54,3	     522,601	-49,6
     42,2742	     493,265	-54,1	     525,004	-48,5
     42,2761	     493,458	-51,8	      525,59	-46,8
     42,2781	     495,239	-51,4	      525,36	-45,9
     42,2801	     500,002	-52,7	     531,798	-47,8
      42,282	     500,855	-52,2	     533,158	-46,8
      42,284	     501,882	-49,9	     530,873	-45,7
     42,2859	     505,534	-51,1	     532,464	-45,2
     42,2879	     506,318	-50,7	      537,37	-45,6
     42,2898	      507,02	-49,3	     537,404	-44,9
     42,2918	     511,839	-48,3	     537,241	-44,4
     42,2937	     513,272	-48,8	     539,744	-44,7
     42,2957	     512,762	-46,5	     540,076	-42,1
     42,2977	     515,588	-46,4	      539,64	-42,2
     42,2996	     519,016	-47,9	      542,89	-42,5
     42,3016	     519,549	-47,0	     545,126	-42,1
     42,3035	     520,183	-45,2	     543,209	-40,9
     42,3055	     526,921	-45,5	     543,361	-40,6
     42,3074	     527,869	-46,3	     548,217	-40,9
     42,3094	     526,503	-44,5	     548,736	-39,8
     42,3113	     529,872	-42,9	     546,786	-39,6
     42,3133	     532,602	-44,7	     548,945	-40,3
     42,3153	      532,72	-44,3	     552,318	-38,6
     42,3172	     534,671	-41,8	     551,315	-37,7
     42,3192	     537,911	-41,9	     552,709	-39,5
     42,3211	     535,717	-41,6	     553,932	-39,1
     42,3231	     536,545	-41,1	     552,189	-36,0
      42,325	     540,872	-39,7	     552,314	-36,1
      42,327	     542,261	-40,2	     556,888	-36,4
     42,3289	     540,887	-38,4	     557,697	-35,6
     42,3309	     543,343	-37,8	     557,778	-35,9
     42,3328	     546,914	-39,3	     556,524	-35,0
     42,3348	     546,666	-38,5	     558,473	-35,0
     42,3368	     547,778	-37,0	     557,763	-32,8
     42,3387	     549,456	-36,3	     557,405	-31,9
     42,3407	     549,884	-37,6	     560,098	-33,8
     42,3426	     550,116	-36,7	     561,958	-33,0
     42,3446	     553,945	-35,5	     559,467	-31,8
     42,3465	     555,571	-36,3	     559,288	-31,5
     42,3485	     555,747	-36,3	     564,483	-32,1
     42,3504	     554,541	-34,1	     564,084	-31,2
     42,3524	     556,156	-33,4	     560,275	-31,6
     42,3544	     557,523	-34,4	     560,754	-31,0
     42,3563	     557,528	-34,0	     562,493	-31,0
     42,3583	     557,997	-31,1	     562,125	-29,7
     42,3602	     559,589	-31,5	     562,341	-29,9
     42,3622	     558,854	-31,7	     564,305	-29,9
     42,3641	     558,266	-30,7	     565,108	-29,9
     42,3661	     561,672	-29,6	     561,877	-27,0
      42,368	      563,46	-30,0	     561,396	-27,8
       42,37	       560,7	-29,3	     565,596	-26,7
     42,3719	     561,843	-28,6	     564,838	-26,4
     42,3739	     564,291	-29,6	     562,618	-26,6
     42,3759	     564,133	-29,1	     563,587	-26,4
     42,3778	     562,709	-28,3	     563,919	-24,7
     42,3798	     563,867	-27,0	     562,519	-24,4
     42,3817	     566,588	-28,7	     561,244	-24,0
     42,3837	     565,382	-27,8	     564,985	-24,7
     42,3856	     565,337	-25,7	     564,699	-24,0
     42,3876	     567,062	-26,0	     561,344	-24,0
     42,3895	     564,547	-26,4	     561,887	-23,7
     42,3915	      563,98	-25,6	     564,892	-23,3
     42,3935	      566,89	-24,1	     564,019	-22,4
     42,3954	     567,771	-24,4	     561,732	-23,4
     42,3974	     564,096	-23,7	     563,222	-23,4
     42,3993	     564,307	-23,3	     562,849	-22,0
     42,4013	     567,362	-22,9	     561,033	-21,4
     42,4032	     567,223	-23,0	      560,62	-21,5
     42,4052	     564,196	-21,1	     563,427	-21,9
     42,4071	     565,076	-20,8	     563,058	-20,2
     42,4091	     567,218	-22,0	     558,581	-20,5
      42,411	     565,501	-21,6	     558,419	-20,5
      42,413	      564,06	-21,3	     560,808	-19,0
      42,415	     566,123	-19,6	     560,146	-19,2
     42,4169	     566,321	-19,6	     556,121	-18,6
     42,4189	     563,758	-20,3	     556,842	-18,6
     42,4208	     562,983	-19,4	     558,476	-17,0
     42,4228	     566,639	-18,7	     556,978	-16,5
     42,4247	     566,447	-18,4	     556,076	-18,0
     42,4267	     562,602	-18,6	     557,022	-17,3
     42,4286	     561,858	-18,0	     555,992	-15,8
     42,4306	     564,426	-17,7	     554,481	-15,6
     42,4326	     563,303	-18,2	     554,174	-15,7
     42,4345	     561,147	-17,1	     556,686	-15,4
     42,4365	     561,976	-16,2	     556,055	-14,8
     42,4384	       562,4	-17,1	     551,841	-15,5
     42,4404	     561,119	-16,9	     552,325	-15,9
     42,4423	     560,339	-15,5	     554,245	-14,6
     42,4443	     560,483	-13,9	     552,444	-14,0
     42,4462	     558,952	-15,4	     549,546	-15,0
     42,4482	     557,957	-15,3	     549,496	-14,6
     42,4501	     558,187	-12,9	     552,242	-13,0
     42,4521	     558,994	-13,1	     550,711	-12,5
     42,4541	     556,761	-13,5	     548,186	-13,2
      42,456	     554,877	-12,3	     548,199	-13,4
      42,458	     555,086	-11,5	       547,8	-11,5
     42,4599	      557,19	-11,2	     546,057	-11,1
     42,4619	     555,854	-12,1	     546,301	-11,7
     42,4638	     551,372	-10,6	     546,616	-12,1
     42,4658	      554,24	-11,2	     543,964	-10,0
     42,4677	     553,634	-11,1	     543,194	-10,1
     42,4697	     549,946	-10,3	     542,732	-11,1
     42,4717	     548,954	-10,1	     542,888	-10,5
     42,4736	     551,297	-10,0	     539,805	-8,4
     42,4756	     550,331	-9,4	     538,476	-8,9
     42,4775	     546,321	-10,1	     539,433	-9,2
     42,4795	     546,256	-9,6	     539,494	-8,9
     42,4814	     546,756	-7,8	     536,829	-8,0
     42,4834	     546,913	-9,5	     536,355	-7,3
     42,4853	     545,422	-9,2	     537,183	-8,1
     42,4873	     544,263	-7,8	     536,826	-7,1
     42,4892	     544,411	-7,8	     532,905	-6,7
     42,4912	     543,321	-9,0	     531,837	-6,5
     42,4932	     542,139	-8,7	     533,399	-7,4
     42,4951	     541,992	-6,6	     533,302	-6,0
     42,4971	     541,912	-6,1	     528,301	-6,2
      42,499	     538,477	-7,2	     527,523	-5,5
      42,501	     537,283	-7,3	     530,891	-6,2
     42,5029	     538,856	-5,8	      530,38	-5,0
     42,5049	     538,375	-6,3	     526,298	-5,3
     42,5068	     533,273	-5,7	     524,887	-4,8
     42,5088	     533,065	-5,6	     527,718	-4,9
     42,5108	     535,001	-4,0	     527,213	-4,3
     42,5127	      534,16	-4,1	     522,385	-4,5
     42,5147	     529,323	-4,3	     521,971	-4,3
     42,5166	     528,994	-4,6	     521,687	-4,4
     42,5186	      531,06	-3,0	     523,432	-3,6
     42,5205	     530,619	-3,0	      518,93	-3,5
     42,5225	     530,038	-3,4	     518,177	-3,9
     42,5244	     525,194	-2,1	     519,845	-2,7
     42,5264	     525,098	-2,1	     519,483	-2,6
     42,5283	     526,849	-2,2	     513,873	-2,4
     42,5303	     525,044	-2,3	     512,966	-2,2
     42,5323	     520,999	-1,9	     515,587	-1,7
     42,5342	     523,688	-1,9	     515,266	-1,1
     42,5362	     523,301	-0,6	     512,924	-1,5
     42,5381	     519,032	-0,9	     510,531	-1,6
     42,5401	     517,928	-0,5	     509,988	-1,6
      42,542	     520,486	 0,1	     510,802	 0,3
      42,544	     518,998	 0,4	      506,45	-0,0
     42,5459	     517,389	 0,4	     505,754	-0,4
     42,5479	     514,726	 1,2	     508,256	 0,3
     42,5499	     513,367	 1,7	     507,478	 0,9
     42,5518	     512,896	 0,6	     502,479	 0,9
     42,5538	     510,589	 0,9	     501,271	 0,5
     42,5557	     509,555	 1,4	     503,518	 1,4
     42,5577	     509,115	 2,9	       502,8	 1,4
     42,5596	     508,434	 0,3	      497,59	 2,0
     42,5616	     506,313	 0,8	     496,996	 1,7
     42,5635	      504,85	 2,0	     497,773	 1,4
     42,5655	     506,214	 2,8	     498,191	 3,3
     42,5674	      505,65	 3,4	     496,178	 3,0
     42,5694	      502,49	 2,1	     492,864	 3,0
     42,5714	     501,496	 3,4	     493,134	 2,3
     42,5733	     501,243	 3,8	     494,096	 5,0
     42,5753	      501,44	 4,1	     489,438	 3,6
     42,5772	     498,758	 2,8	     488,511	 4,3
     42,5792	     496,936	 3,6	     491,469	 3,9
     42,5811	     497,602	 4,4	     490,349	 5,0
     42,5831	     496,972	 4,5	     485,665	 5,2
      42,585	     492,163	 3,0	      485,26	 5,1
      42,587	     490,553	 4,4	     484,207	 4,7
      42,589	       492,9	 5,2	     485,763	 5,2
     42,5909	     493,199	 5,0	     484,088	 6,3
     42,5929	      487,81	 4,9	     480,424	 5,4
     42,5948	     486,518	 4,8	     479,685	 5,9
     42,5968	     488,035	 6,4	     482,562	 6,5
     42,5987	     487,655	 6,3	     481,953	 6,8
     42,6007	     483,075	 5,7	     475,859	 5,9
     42,6026	     481,437	 6,2	     474,618	 6,9
     42,6046	     481,248	 6,3	     476,171	 6,8
     42,6065	     483,065	 6,7	     475,699	 7,3
     42,6085	     482,448	 6,4	     471,001	 7,4
     42,6105	     477,287	 7,4	     470,503	 7,4
     42,6124	     476,504	 7,2	     472,321	 7,5
     42,6144	     478,828	 7,9	     471,083	 7,8
     42,6163	     478,138	 8,0	     466,438	 7,4
     42,6183	     472,999	 6,7	     465,708	 7,7
     42,6202	     471,891	 8,1	     468,158	 8,2
     42,6222	     473,632	 8,5	     466,702	 9,4
     42,6241	     473,121	 8,2	     461,831	 8,3
     42,6261	     468,556	 8,5	     460,922	 8,8
     42,6281	      467,69	 9,2	     463,454	 8,0
       42,63	     469,892	10,1	     462,032	 9,7
      42,632	     469,525	 9,4	     460,624	 9,9
     42,6339	     464,855	 9,8	     456,449	 8,9
     42,6359	     463,192	 9,0	     455,682	10,0
     42,6378	     464,161	10,8	     457,999	10,0
     42,6398	      463,78	10,3	      453,06	 9,8
     42,6417	     460,668	 9,9	     452,289	10,4
     42,6437	     458,877	10,1	     454,257	10,2
     42,6456	     458,788	10,9	     453,118	10,3
     42,6476	      458,54	11,5	     449,634	10,4
     42,6496	     454,794	11,6	     448,497	10,5
     42,6515	     453,521	10,7	     446,128	11,1
     42,6535	     453,785	12,7	     449,779	11,2
     42,6554	      453,72	12,5	     448,526	12,1
     42,6574	     450,554	12,0	     443,508	11,9
     42,6593	     449,538	11,4	     442,176	12,2
     42,6613	     447,796	12,6	     444,695	11,5
     42,6632	     448,159	12,8	     443,925	12,4
     42,6652	     448,128	13,0	     440,374	12,7
     42,6672	     445,439	12,1	      439,06	13,7
     42,6691	     443,915	12,3	     440,342	11,8
     42,6711	     444,021	13,7	     439,463	12,6
      42,673	     444,312	13,5	     437,981	13,9
      42,675	     442,162	13,2	     435,338	13,9
     42,6769	     440,977	13,5	     434,672	13,0
     42,6789	     437,989	14,5	     434,354	13,6
     42,6808	     437,544	14,6	     432,991	14,4
     42,6828	     437,409	13,6	      431,12	14,7
     42,6847	     435,035	13,7	     429,717	13,5
     42,6867	     433,747	15,9	     429,386	14,4
     42,6887	     434,151	15,0	     430,622	14,8
     42,6906	     433,799	16,1	     429,234	15,1
     42,6926	      431,32	14,6	     427,771	15,4
     42,6945	     428,451	15,1	     426,016	14,3
     42,6965	     428,067	15,6	     425,582	14,7
     42,6984	         429	16,5	     424,031	15,7
     42,7004	     427,737	15,2	      421,85	16,3
     42,7023	     423,446	15,9	     420,928	15,2
     42,7043	     422,353	15,4	     420,263	15,4
     42,7063	     423,777	16,8	     422,005	16,1
     42,7082	     423,631	16,0	      421,09	17,1
     42,7102	     422,046	15,9	     415,695	16,6
     42,7121	     417,693	16,2	     414,985	16,6
     42,7141	     416,641	16,7	     416,773	16,5
      42,716	     419,168	17,4	     416,121	17,7
      42,718	     418,555	17,1	     411,706	17,4
     42,7199	     413,411	17,7	     410,506	17,4
     42,7219	     413,855	17,3	      412,91	16,9
     42,7239	      415,82	17,7	     412,079	17,8
     42,7258	     415,353	16,5	     407,807	18,2
     42,7278	     413,479	17,3	     406,011	18,4
     42,7297	     408,177	17,1	      406,44	17,8
     42,7317	     407,306	19,3	      406,81	18,2
     42,7336	     410,469	18,8	     406,857	17,9
     42,7356	     408,713	19,3	     402,226	19,1
     42,7375	     403,357	18,1	     401,176	18,8
     42,7395	      402,57	18,8	     402,575	18,6
     42,7414	     405,197	18,8	     402,138	18,6
     42,7434	     404,293	19,5	     400,317	19,9
     42,7454	     399,094	19,4	     398,083	19,6
     42,7473	     397,651	19,6	      395,66	19,0
     42,7493	     399,169	19,7	     395,246	18,9
     42,7512	     398,169	20,2	     396,249	20,6
     42,7532	     396,555	19,2	     395,244	20,9
     42,7551	     395,868	19,7	     392,133	20,1
     42,7571	     393,805	20,4	      392,85	20,5
      42,759	     393,572	21,0	     392,812	19,2
      42,761	     394,238	20,0	     392,738	20,2
      42,763	     392,596	20,6	     390,689	20,7
     42,7649	     391,405	21,2	     386,162	20,6
     42,7669	     388,753	22,1	     385,556	20,1
     42,7688	     388,307	22,8	     387,816	20,4
     42,7708	     389,286	21,6	     386,685	20,4
     42,7727	     388,018	22,0	     382,075	21,6
     42,7747	     383,674	22,3	     380,866	21,1
     42,7766	     382,844	22,9	      384,45	21,5
     42,7786	     386,047	21,9	     383,184	20,9
     42,7805	     384,622	22,5	     380,351	21,5
     42,7825	       379,3	22,8	     378,754	21,9
     42,7845	     377,712	22,4	     377,697	21,5
     42,7864	     380,124	23,6	     377,549	21,0
     42,7884	     379,284	22,9	     378,312	21,9
     42,7903	     375,897	22,7	     376,953	22,2
     42,7923	     374,462	22,9	     372,348	21,6
     42,7942	     374,681	24,3	     370,744	21,9
     42,7962	     374,676	23,9	     373,674	22,0
     42,7981	     374,901	23,5	     372,798	23,0
     42,8001	       371,3	23,7	     368,332	22,5
     42,8021	     369,973	23,3	     367,177	22,9
      42,804	       367,8	24,0	     369,268	22,4
      42,806	     367,783	23,4	     368,259	22,2
     42,8079	     369,539	23,7	     365,918	23,6
     42,8099	     364,448	23,9	     364,826	24,4
     42,8118	     363,614	24,5	     362,296	23,0
     42,8138	     365,739	24,7	     362,124	23,9
     42,8157	     365,754	24,2	     364,278	24,2
     42,8177	     363,789	23,8	     363,873	24,9
     42,8196	     362,809	23,8	     358,404	24,5
     42,8216	     359,527	25,4	     357,769	24,8
     42,8236	     359,507	25,0	     359,846	24,1
     42,8255	     360,074	24,2	     360,426	25,3
     42,8275	     359,188	24,8	     356,312	25,1
     42,8294	     357,912	24,1	     355,306	24,9
     42,8314	     353,903	25,1	     353,554	24,5
     42,8333	     353,133	25,9	     353,192	24,9
     42,8353	      355,67	26,0	     354,301	25,5
     42,8372	     351,731	24,5	     353,381	26,1
     42,8392	     351,712	24,9	     348,776	25,5
     42,8412	     349,439	25,6	      348,22	25,1
     42,8431	      349,45	26,9	     350,415	25,0
     42,8451	     350,337	25,6	     349,691	24,7
      42,847	     348,667	26,7	     347,364	25,7
      42,849	     346,941	26,9	     345,839	25,5
     42,8509	     344,986	27,0	     345,346	25,3
     42,8529	     343,943	28,1	     344,424	25,1
     42,8548	     347,083	27,2	     345,575	26,4
     42,8568	     346,208	27,3	     344,844	26,0
     42,8587	     341,393	27,6	     340,137	25,3
     42,8607	     340,122	27,6	     338,609	26,2
     42,8627	     341,533	28,2	     340,767	26,0
     42,8646	     341,417	28,8	     340,795	26,3
     42,8666	     340,019	27,5	     338,206	26,8
     42,8685	      338,61	27,7	     336,869	26,9
     42,8705	     336,311	28,9	     335,192	27,8
     42,8724	      335,64	28,2	     334,904	26,3
     42,8744	     337,544	28,3	     335,517	27,1
     42,8763	     335,908	27,1	     333,993	27,5
     42,8783	     330,353	27,8	     333,979	29,2
     42,8803	     329,981	27,6	     330,342	28,0
     42,8822	     332,931	27,6	     330,306	27,9
     42,8842	      333,13	28,5	     332,791	28,1
     42,8861	     330,044	28,3	     332,484	28,2
     42,8881	     328,511	27,6	     327,221	28,4
       42,89	     327,846	28,2	     325,742	28,8
      42,892	     327,537	28,6	     327,217	28,0
     42,8939	      327,23	29,5	     327,167	27,8
     42,8959	     327,611	28,1	     325,363	28,9
     42,8979	     326,962	29,3	     324,533	28,7
     42,8998	     323,193	29,2	     321,206	28,6
     42,9018	     321,626	29,6	     321,047	28,2
     42,9037	     324,352	30,0	     322,778	28,3
     42,9057	      322,93	29,7	     322,547	28,9
     42,9076	     318,972	29,9	     321,132	28,8
     42,9096	     317,191	29,9	     317,038	28,7
     42,9115	     316,318	29,8	     315,878	29,2
     42,9135	     317,371	30,7	     319,031	28,7
     42,9154	     317,847	30,7	     317,973	28,4
     42,9174	     316,859	30,1	     315,708	29,4
     42,9194	     312,176	30,6	     314,922	29,9
     42,9213	     311,834	29,3	     312,494	28,9
     42,9233	     313,968	30,5	     311,603	29,6
     42,9252	     313,366	31,1	     314,309	29,8
     42,9272	     313,449	30,1	      313,63	30,0
     42,9291	      312,82	29,5	     310,008	31,0
     42,9311	     308,327	29,8	      308,33	31,8
      42,933	     310,184	31,1	     308,457	30,0
      42,935	     311,047	31,1	     307,892	30,8
      42,937	     308,909	30,2	     308,889	31,1
     42,9389	     307,417	30,8	     307,778	31,6
     42,9409	     306,257	30,9	      303,46	30,5
     42,9428	     303,836	31,3	     303,957	30,8
     42,9448	     304,037	31,9	     305,418	30,4
     42,9467	     306,323	31,9	     304,409	29,8
     42,9487	     304,724	31,9	     304,191	30,8
     42,9506	     299,291	31,9	      303,62	30,8
     42,9526	     298,851	32,5	     298,874	30,9
     42,9545	     301,121	32,8	     300,686	30,5
     42,9565	     301,076	32,8	     300,007	30,7
     42,9585	     300,796	31,8	     300,142	31,1
     42,9604	     298,163	32,0	     298,144	31,5
     42,9624	     296,939	31,1	     297,689	32,6
     42,9643	     294,657	33,0	     294,972	31,8
     42,9663	     294,257	32,8	     294,356	31,8
     42,9682	     297,738	32,2	     296,881	33,3
     42,9702	     297,619	32,2	     297,255	32,5
     42,9721	     292,414	32,0	     292,624	33,0
     42,9741	     291,717	32,3	     292,005	32,1
     42,9761	     291,564	33,8	     291,718	32,7
      42,978	     291,464	33,5	     291,158	32,0
       42,98	     293,204	31,6	     292,893	32,5
     42,9819	     292,478	32,3	     291,148	31,6
     42,9839	     287,385	33,0	     287,311	33,1
     42,9858	     286,347	34,0	     286,357	32,6
     42,9878	     289,222	33,7	     287,832	31,9
     42,9897	     288,662	34,7	      288,06	32,0
     42,9917	      289,02	34,1	     286,966	32,8
     42,9936	     287,357	33,3	     286,409	33,0
     42,9956	     282,576	34,2	     282,055	33,3
     42,9976	     281,507	33,7	     281,755	33,4
     42,9995	     284,071	33,8	     282,225	33,8
     43,0015	      283,32	33,0	     284,197	33,8
     43,0034	     281,261	33,7	     283,707	33,7
     43,0054	     280,472	33,6	     279,947	34,3
     43,0073	     278,085	33,6	     279,723	34,2
     43,0093	      278,44	34,3	      278,76	34,0
     43,0112	     280,955	33,8	     278,755	33,2
     43,0132	     280,303	34,7	      281,24	33,5
     43,0152	     277,715	34,0	     279,811	33,3
     43,0171	     276,529	33,8	     274,929	34,6
     43,0191	     274,045	35,9	     274,159	34,0
      43,021	     273,767	35,0	     272,595	34,1
      43,023	     276,621	35,8	     274,698	33,0
     43,0249	     276,566	34,7	     274,138	33,6
     43,0269	     271,948	35,4	     273,624	34,2
     43,0288	     271,104	34,1	     272,483	35,4
     43,0308	     269,919	34,3	     269,669	34,4
     43,0327	     270,516	36,5	     269,627	35,1
     43,0347	     272,541	34,7	     272,347	33,9
     43,0367	     272,493	33,8	     272,081	34,8
     43,0386	     267,621	34,6	     268,195	35,4
     43,0406	     267,968	34,4	      268,24	35,6
     43,0425	     266,718	35,0	     266,935	35,6
     43,0445	      266,77	36,0	     266,257	34,9
     43,0464	     269,175	34,5	     265,119	34,3
     43,0484	     269,242	36,1	     268,121	34,6
     43,0503	     268,045	36,3	     267,168	35,0
     43,0523	     262,401	36,6	     262,608	35,5
     43,0543	     261,653	35,7	     261,585	35,8
     43,0562	     262,497	36,5	     261,644	34,7
     43,0582	     262,191	37,1	     261,029	35,1
     43,0601	     263,721	35,0	     263,042	35,8
     43,0621	     263,794	35,5	     262,701	36,0
      43,064	     258,933	36,3	     258,788	36,1
      43,066	     258,464	35,1	     258,942	36,7
     43,0679	     258,015	36,5	     257,575	35,9
     43,0699	     261,175	35,5	     257,387	36,2
     43,0718	     260,809	35,6	     260,429	35,6
     43,0738	     259,703	36,0	     260,064	35,8
     43,0758	     254,223	37,0	     254,694	36,7
     43,0777	     254,491	36,7	     254,737	36,2
     43,0797	     256,192	37,1	     254,588	35,7
     43,0816	     255,692	38,3	     252,757	35,8
     43,0836	     256,578	36,7	     255,445	35,3
     43,0855	     255,692	37,8	      254,12	36,6
     43,0875	     250,972	37,0	     251,089	36,6
     43,0894	      250,09	37,6	     251,638	37,7
     43,0914	     250,918	38,3	     248,432	37,5
     43,0934	      249,93	37,6	     247,781	37,5
     43,0953	     251,177	35,9	      252,19	36,8
     43,0973	     251,051	36,2	     251,687	37,2
     43,0992	     251,134	36,8	     251,274	36,0
     43,1012	     247,105	37,3	     248,347	38,1
     43,1031	     247,364	37,6	     247,367	37,6
     43,1051	     245,924	37,9	     245,902	36,6
      43,107	      248,56	37,4	     245,123	36,3
      43,109	     248,093	37,7	     248,057	36,3
     43,1109	     244,446	37,9	     247,412	36,5
     43,1129	     243,306	37,7	     244,215	37,8
     43,1149	     242,419	38,9	     244,163	38,4
     43,1168	     242,014	38,2	     242,178	37,5
     43,1188	     245,062	38,3	     240,805	38,0
     43,1207	      245,39	36,9	     243,917	37,7
     43,1227	     241,901	37,2	     243,398	37,6
     43,1246	     242,015	37,8	     243,333	37,1
     43,1266	     238,522	38,2	      241,54	38,0
     43,1285	      238,77	38,8	     238,605	38,5
     43,1305	     241,836	38,2	     237,655	37,8
     43,1325	     240,788	38,9	     237,782	37,3
     43,1344	     239,577	37,8	     241,024	37,1
     43,1364	     239,044	38,8	     240,181	38,0
     43,1383	      237,85	38,7	     236,966	38,6
     43,1403	       234,7	39,5	     236,278	39,4
     43,1422	     232,668	38,8	     233,417	38,6
     43,1442	     236,216	38,9	      233,64	39,0
     43,1461	     236,706	39,2	     233,561	38,1
     43,1481	     234,655	37,8	     236,449	37,9
       43,15	     235,093	38,4	     236,081	37,8
      43,152	      231,03	39,3	     233,148	38,6
      43,154	     231,352	39,5	     233,019	38,3
     43,1559	     234,023	39,5	     229,492	38,7
     43,1579	     232,961	39,9	     232,358	38,3
     43,1598	     232,577	39,4	     231,866	38,1
     43,1618	     232,509	39,3	     233,182	38,6
     43,1637	     228,731	40,3	     232,522	39,1
     43,1657	      227,11	40,2	     228,149	40,1
     43,1676	     226,768	39,6	      227,98	39,9
     43,1696	     227,743	39,6	      226,13	40,1
     43,1716	     229,949	39,4	     225,535	39,8
     43,1735	     229,924	38,5	     229,012	39,1
     43,1755	     229,159	38,7	     228,254	38,5
     43,1774	     224,403	39,6	     227,892	38,8
     43,1794	     224,263	40,2	     226,845	39,5
     43,1813	     226,217	40,6	     223,244	39,6
     43,1833	     224,654	41,4	     223,079	40,1
     43,1852	     226,979	40,2	      225,04	38,5
     43,1872	     225,619	40,3	      223,99	38,9
     43,1891	     222,025	39,7	     225,011	40,6
     43,1911	      222,58	39,6	     224,965	39,6
     43,1931	     220,363	40,7	     221,416	41,4
      43,195	      220,37	40,0	     221,084	39,3
      43,197	     223,513	39,6	     220,259	39,5
     43,1989	     222,844	40,4	     218,683	39,6
     43,2009	     222,232	39,9	     220,558	39,0
     43,2028	     221,014	40,6	     219,725	39,4
     43,2048	     220,257	39,7	     219,786	40,6
     43,2067	     215,711	42,3	       220,3	40,7
     43,2087	     217,828	41,4	     216,442	40,8
     43,2107	     217,078	41,8	     215,941	40,6
     43,2126	     218,583	41,8	     218,109	39,8
     43,2146	     217,969	40,1	     217,291	39,9
     43,2165	     215,015	40,0	     218,612	40,8
     43,2185	     215,296	39,7	     217,631	39,3
     43,2204	     213,207	41,3	     214,165	41,0
     43,2224	     212,221	41,9	     213,752	40,8
     43,2243	     216,034	40,6	     212,927	39,8
     43,2263	     215,893	42,2	     211,439	41,5
     43,2282	     214,732	41,4	     214,446	40,6
     43,2302	     214,135	40,6	     213,356	40,8
     43,2322	     213,555	39,7	     214,225	41,6
     43,2341	     209,585	41,3	     214,134	41,2
     43,2361	     209,371	41,4	     209,288	41,8
      43,238	     210,814	41,4	     208,877	41,5
       43,24	     210,554	42,2	     209,535	41,1
     43,2419	     212,708	41,2	     208,946	40,3
     43,2439	     211,634	41,6	     210,965	39,6
     43,2458	     208,333	41,2	     211,259	41,1
     43,2478	     208,008	41,2	     209,245	41,7
     43,2498	     206,195	43,5	     209,122	42,1
     43,2517	     205,192	41,5	     205,685	42,5
     43,2537	     208,111	42,3	     205,581	42,0
     43,2556	     207,496	41,2	     206,144	41,0
     43,2576	     207,159	40,5	     204,753	40,4
     43,2595	     207,646	40,6	     208,172	40,1
     43,2615	     203,456	41,8	     207,234	40,6
     43,2634	     203,233	42,1	     205,626	41,2
     43,2654	     204,055	43,1	     205,502	42,4
     43,2673	     203,465	42,7	     202,334	42,2
     43,2693	       202,7	43,1	     202,315	42,8
     43,2713	     205,053	42,0	     203,621	41,7
     43,2732	     204,042	41,5	     202,681	41,8
     43,2752	     203,237	41,4	     204,246	41,8
     43,2771	     199,498	41,8	     204,796	41,1
     43,2791	     199,986	41,6	     201,142	42,1
      43,281	      200,26	43,5	     201,057	41,5
      43,283	     198,688	43,9	     197,773	41,5
     43,2849	     202,552	42,2	     196,696	42,3
     43,2869	     201,055	43,0	     199,478	41,6
     43,2889	     200,383	42,3	     199,192	42,1
     43,2908	     199,778	41,1	     200,044	42,7
     43,2928	     199,875	41,3	     199,813	42,0
     43,2947	     195,678	42,2	     199,824	42,5
     43,2967	     195,565	42,2	      195,89	43,0
     43,2986	     196,525	43,2	       195,3	42,7
     43,3006	     196,151	43,6	     194,454	42,2
     43,3025	     198,276	43,2	     197,268	41,0
     43,3045	     197,865	42,7	     195,432	42,1
     43,3064	     195,422	43,3	     197,138	42,2
     43,3084	     194,661	42,1	     196,778	42,6
     43,3104	     191,241	43,7	      192,67	43,6
     43,3123	     191,367	43,0	     193,143	43,1
     43,3143	     194,268	42,4	     193,402	43,1
     43,3162	     193,442	43,8	     192,002	42,1
     43,3182	     195,578	42,6	     190,747	42,1
     43,3201	     195,036	43,5	      193,37	42,2
     43,3221	      191,52	42,4	      192,54	42,4
      43,324	     192,121	42,5	     193,007	43,0
      43,326	     188,922	43,3	     193,583	42,6
      43,328	     189,127	42,7	     189,537	44,5
     43,3299	     189,409	44,3	     189,657	43,5
     43,3319	       189,9	43,2	     187,691	43,2
     43,3338	     192,899	42,9	     187,253	42,9
     43,3358	     191,797	43,2	     191,164	40,9
     43,3377	     190,367	44,2	     189,916	42,2
     43,3397	     188,729	43,3	     189,835	43,2
     43,3416	     188,341	42,5	     190,151	43,4
     43,3436	     185,169	44,2	     186,126	44,0
     43,3456	     185,716	44,0	     187,099	44,9
     43,3475	     186,645	44,2	     184,384	44,0
     43,3495	     186,592	44,2	     185,018	43,3
     43,3514	     188,835	43,2	     187,803	41,7
     43,3534	     188,194	43,5	     186,121	41,7
     43,3553	     185,344	43,4	     186,525	42,5
     43,3573	     185,546	43,2	     186,241	43,4
     43,3592	     182,429	44,5	     183,479	45,1
     43,3612	     182,612	43,4	     184,705	45,4
     43,3631	     183,273	44,8	     181,894	44,9
     43,3651	     182,631	44,7	     181,504	43,7
     43,3671	     185,809	43,8	     182,271	42,9
      43,369	     185,434	44,0	     180,586	43,4
      43,371	     184,797	44,0	     184,156	43,0
     43,3729	     182,797	44,1	     182,882	43,5
     43,3749	     183,208	43,8	     183,025	44,6
     43,3768	     178,796	43,9	     183,465	44,5
     43,3788	     179,155	44,2	     179,264	45,5
     43,3807	     178,375	44,8	     179,487	44,3
     43,3827	     177,793	44,8	      179,25	44,7
     43,3847	     181,647	43,5	     178,294	43,7
     43,3866	     181,234	45,4	     177,318	44,0
     43,3886	     179,395	43,7	     179,836	43,1
     43,3905	     179,295	43,7	      178,65	44,4
     43,3925	       180,4	43,1	     180,129	44,6
     43,3944	      176,79	43,7	     180,327	43,5
     43,3964	     176,199	44,8	     178,145	45,3
     43,3983	      176,16	45,6	       178,3	44,2
     43,4003	     177,929	44,9	     174,963	44,5
     43,4022	     177,319	45,1	     174,695	44,5
     43,4042	     176,411	45,7	     175,355	43,9
     43,4062	      178,41	44,3	     174,618	44,8
     43,4081	     178,258	43,3	     177,458	43,9
     43,4101	     173,777	44,6	     176,923	43,4
      43,412	     174,342	44,6	     176,464	44,4
      43,414	     171,644	44,6	     176,579	43,7
     43,4159	     172,193	45,9	      172,31	44,2
     43,4179	      172,22	46,3	     172,491	45,0
     43,4198	     173,495	46,5	     170,121	45,5
     43,4218	     172,045	46,2	     170,955	46,6
     43,4238	     174,837	44,8	     172,928	45,2
     43,4257	     174,827	43,7	     172,473	44,4
     43,4277	     173,612	43,8	     174,687	44,6
     43,4296	      174,61	44,3	     173,305	42,7
     43,4316	     170,105	44,9	      172,05	44,7
     43,4335	     170,113	44,7	     172,731	45,1
     43,4355	     168,481	46,7	     169,352	46,3
     43,4374	      167,87	46,0	     170,373	45,8
     43,4394	     170,882	45,7	     168,003	46,2
     43,4413	     169,643	45,8	     168,259	45,9
     43,4433	     172,274	44,8	     169,152	43,9
     43,4453	     171,167	45,5	     167,425	44,8
     43,4472	     169,499	44,6	      170,21	44,2
     43,4492	     169,918	45,1	     169,691	45,0
     43,4511	     166,318	45,6	     169,761	45,1
     43,4531	     166,758	45,1	     170,229	44,9
      43,455	     164,967	46,2	      166,51	46,9
      43,457	     164,655	45,7	     167,087	45,8
     43,4589	     166,958	46,0	     164,892	45,9
     43,4609	     166,203	47,2	      164,13	46,7
     43,4629	     169,005	46,2	     165,178	44,8
     43,4648	      167,53	45,8	     164,358	46,1
     43,4668	     166,173	45,4	     167,843	45,5
     43,4687	     166,416	44,1	     166,396	44,3
     43,4707	     163,115	44,7	     165,268	44,0
     43,4726	     164,443	45,1	     166,259	44,9
     43,4746	     162,237	46,9	     166,332	44,7
     43,4765	     161,597	46,6	     163,097	45,9
     43,4785	     163,645	47,5	     164,621	46,8
     43,4804	     161,591	46,3	     161,373	47,0
     43,4824	     164,882	45,5	     161,718	46,2
     43,4844	     164,056	45,3	     160,518	46,0
     43,4863	     164,312	44,8	     159,747	45,7
     43,4883	     164,595	45,4	     163,186	44,5
     43,4902	     164,418	46,0	     162,359	45,5
     43,4922	     161,426	46,2	     163,175	45,8
     43,4941	     162,048	45,7	     163,129	45,0
     43,4961	     158,653	46,2	     160,097	47,3
      43,498	     159,371	45,4	     161,679	45,5
        43,5	     163,628	45,7	     161,035	47,6

