X-Data [Hz]	Piezo (M - Filtered) [mV]	Phase [Deg]	Piezo (M - Filtered) [mV]	Phase [Deg]	
	002: [07-09-24 17:03]		003: [07-09-24 17:06]	
        41,5	     1373,83	-28,1	     1395,07	-31,1
      41,502	      1408,7	-26,8	     1398,88	-28,9
     41,5039	     1427,16	-30,4	     1406,15	-30,7
     41,5059	     1430,46	-28,4	     1434,86	-28,6
     41,5078	     1414,92	-26,4	     1421,76	-30,5
     41,5098	     1425,42	-29,6	     1401,46	-27,4
     41,5117	     1436,35	-26,3	     1427,05	-29,1
     41,5137	     1449,74	-29,1	     1439,05	-27,1
     41,5156	      1453,8	-25,2	      1416,8	-29,1
     41,5176	     1426,41	-25,5	     1426,54	-30,7
     41,5196	     1426,87	-28,6	     1432,84	-26,3
     41,5215	     1450,92	-26,0	     1422,05	-28,9
     41,5235	     1456,29	-28,1	     1430,53	-26,6
     41,5254	     1456,06	-25,3	     1442,73	-32,4
     41,5274	     1442,08	-30,3	     1452,48	-28,4
     41,5293	     1450,13	-26,1	     1436,76	-28,3
     41,5313	     1450,65	-28,0	     1424,63	-30,5
     41,5332	     1455,49	-27,4	     1437,79	-26,8
     41,5352	     1478,99	-25,8	     1446,85	-31,0
     41,5371	     1452,21	-31,4	     1425,08	-28,6
     41,5391	     1452,21	-27,9	     1438,46	-28,2
     41,5411	     1452,59	-26,9	     1456,72	-28,2
      41,543	     1469,41	-27,2	     1459,67	-29,3
      41,545	      1471,8	-29,0	     1478,35	-30,0
     41,5469	     1457,69	-29,1	     1464,07	-26,8
     41,5489	     1477,95	-25,7	      1447,7	-27,7
     41,5508	     1479,71	-27,6	     1454,53	-26,2
     41,5528	     1473,82	-24,8	     1463,28	-28,1
     41,5547	      1478,7	-25,9	     1476,73	-27,1
     41,5567	     1473,16	-29,0	     1466,83	-25,9
     41,5587	     1481,53	-25,2	     1458,77	-27,2
     41,5606	     1509,47	-28,7	     1451,09	-25,7
     41,5626	     1475,99	-25,2	     1499,08	-31,4
     41,5645	     1478,84	-30,3	     1494,27	-29,5
     41,5665	     1492,77	-28,5	     1454,05	-27,6
     41,5684	     1479,11	-26,9	     1456,09	-29,3
     41,5704	      1479,3	-26,4	     1491,19	-25,8
     41,5723	     1497,91	-25,9	      1473,8	-27,4
     41,5743	     1505,49	-29,4	     1466,22	-27,2
     41,5762	     1514,56	-30,8	     1493,79	-28,1
     41,5782	     1486,47	-25,7	     1485,44	-24,0
     41,5802	     1484,72	-27,4	     1469,62	-25,8
     41,5821	     1509,86	-26,1	     1491,08	-30,1
     41,5841	     1509,86	-29,7	     1515,76	-26,5
      41,586	     1498,56	-24,8	     1519,13	-28,5
      41,588	     1492,77	-25,4	     1483,59	-26,0
     41,5899	     1508,58	-26,0	     1496,45	-29,4
     41,5919	     1525,64	-24,9	     1514,57	-30,0
     41,5938	     1505,29	-30,9	     1503,97	-26,8
     41,5958	     1509,93	-27,9	     1517,31	-28,5
     41,5978	     1524,15	-26,1	     1522,28	-26,4
     41,5997	     1526,68	-27,8	     1509,76	-26,2
     41,6017	     1518,88	-28,8	     1512,43	-29,3
     41,6036	     1522,58	-30,9	      1520,4	-27,2
     41,6056	     1533,97	-30,5	      1509,3	-29,9
     41,6075	     1534,94	-25,6	     1523,18	-24,4
     41,6095	     1527,21	-26,6	     1541,77	-24,7
     41,6114	     1532,82	-25,8	     1551,52	-26,6
     41,6134	     1544,81	-28,2	     1522,79	-26,2
     41,6153	     1547,62	-25,4	     1528,55	-29,7
     41,6173	     1543,84	-30,1	     1527,91	-27,6
     41,6193	     1531,69	-27,0	      1537,6	-30,1
     41,6212	     1554,52	-27,5	     1546,71	-27,7
     41,6232	     1562,53	-29,5	     1542,41	-27,7
     41,6251	     1558,52	-26,9	     1531,75	-28,4
     41,6271	     1574,91	-25,4	     1540,17	-24,7
      41,629	      1565,2	-28,5	     1541,32	-27,4
      41,631	     1539,92	-27,2	     1551,44	-25,8
     41,6329	     1556,44	-28,0	     1564,32	-26,3
     41,6349	     1550,93	-23,0	     1550,74	-25,9
     41,6369	     1562,54	-23,9	     1533,17	-24,5
     41,6388	     1552,32	-26,0	     1547,03	-28,1
     41,6408	     1572,22	-24,5	     1558,06	-26,4
     41,6427	     1583,55	-27,7	     1572,91	-28,5
     41,6447	     1575,66	-24,2	     1562,42	-28,9
     41,6466	     1579,15	-28,0	     1557,18	-26,2
     41,6486	     1570,02	-28,0	      1572,1	-29,0
     41,6505	      1586,3	-27,1	     1565,24	-26,0
     41,6525	     1597,42	-28,6	     1569,48	-28,7
     41,6544	     1578,55	-24,0	     1569,34	-25,4
     41,6564	     1568,49	-24,8	      1559,3	-25,8
     41,6584	      1585,5	-27,0	     1566,77	-27,4
     41,6603	     1602,59	-25,9	     1577,67	-25,1
     41,6623	     1603,26	-28,0	     1579,48	-27,6
     41,6642	     1612,74	-24,9	     1587,79	-26,0
     41,6662	     1619,82	-24,3	     1590,97	-26,5
     41,6681	     1594,89	-28,8	     1592,93	-27,8
     41,6701	      1587,1	-24,4	     1588,42	-25,3
      41,672	     1626,52	-29,5	     1600,35	-27,7
      41,674	     1617,37	-29,7	     1607,48	-30,1
      41,676	     1596,78	-24,2	     1596,35	-26,4
     41,6779	      1606,8	-26,3	     1604,13	-27,9
     41,6799	     1631,18	-26,4	     1603,55	-24,8
     41,6818	     1642,32	-26,7	     1609,24	-27,4
     41,6838	     1627,04	-24,7	     1611,34	-26,0
     41,6857	     1616,33	-24,0	     1620,88	-25,3
     41,6877	     1611,28	-25,9	     1614,33	-24,8
     41,6896	     1630,06	-24,7	     1617,82	-23,9
     41,6916	        1642	-29,4	     1621,67	-29,7
     41,6936	     1621,15	-27,1	     1623,94	-28,6
     41,6955	     1644,02	-25,4	     1627,95	-27,3
     41,6975	     1643,07	-26,0	     1644,99	-28,6
     41,6994	     1650,88	-23,4	     1653,66	-28,1
     41,7014	     1631,49	-27,7	     1639,46	-26,1
     41,7033	     1632,75	-24,0	     1643,01	-28,7
     41,7053	     1639,28	-23,6	     1630,45	-26,7
     41,7072	     1661,26	-26,2	     1658,15	-27,8
     41,7092	      1660,3	-24,0	     1661,48	-23,5
     41,7111	     1651,25	-24,7	     1662,09	-23,8
     41,7131	     1630,73	-27,3	     1633,59	-26,4
     41,7151	     1658,53	-23,8	     1635,22	-24,9
      41,717	     1675,66	-25,1	     1654,21	-29,7
      41,719	     1672,17	-24,1	     1667,37	-27,6
     41,7209	     1667,71	-26,3	      1671,9	-27,2
     41,7229	      1686,9	-26,6	     1668,85	-24,8
     41,7248	     1679,08	-24,8	     1666,28	-24,8
     41,7268	     1659,17	-24,6	     1663,86	-29,1
     41,7287	      1660,9	-23,3	     1678,07	-28,9
     41,7307	     1666,93	-22,0	     1652,46	-25,1
     41,7327	     1690,21	-28,3	     1661,94	-27,2
     41,7346	     1689,19	-26,7	     1687,01	-24,6
     41,7366	     1684,89	-25,2	     1689,79	-26,9
     41,7385	     1685,02	-26,8	     1684,79	-24,9
     41,7405	      1674,9	-23,4	     1673,43	-27,0
     41,7424	     1690,44	-26,1	     1691,56	-24,7
     41,7444	     1712,78	-23,3	     1687,26	-22,4
     41,7463	      1714,7	-23,7	     1695,54	-28,4
     41,7483	     1702,32	-24,6	     1700,88	-27,6
     41,7502	     1686,96	-22,0	     1688,53	-25,2
     41,7522	     1697,37	-28,0	     1693,24	-27,0
     41,7542	     1706,53	-25,2	     1706,89	-27,1
     41,7561	     1736,67	-24,6	     1694,97	-24,1
     41,7581	     1726,55	-26,2	     1709,02	-27,1
       41,76	     1707,09	-23,2	     1710,74	-26,1
      41,762	      1714,5	-24,3	     1722,14	-27,1
     41,7639	     1740,35	-26,4	     1715,72	-23,8
     41,7659	     1733,48	-24,5	     1713,17	-23,6
     41,7678	     1705,99	-25,3	     1732,12	-27,2
     41,7698	     1708,01	-21,6	     1731,22	-24,1
     41,7718	     1726,67	-19,7	     1717,83	-27,2
     41,7737	     1747,47	-25,7	     1714,91	-28,2
     41,7757	     1750,83	-24,4	     1726,03	-24,4
     41,7776	     1744,53	-25,7	     1744,14	-26,8
     41,7796	     1754,98	-26,7	     1743,99	-23,8
     41,7815	     1748,41	-22,7	     1736,36	-23,7
     41,7835	     1750,24	-27,4	      1734,8	-28,4
     41,7854	     1758,25	-23,9	      1753,7	-25,5
     41,7874	     1751,19	-25,8	      1762,5	-25,6
     41,7893	     1758,24	-28,4	     1781,38	-23,9
     41,7913	     1749,15	-21,6	     1772,88	-23,0
     41,7933	     1779,13	-21,0	     1769,66	-26,3
     41,7952	     1761,85	-25,8	     1741,85	-24,7
     41,7972	     1759,53	-21,5	     1751,67	-27,1
     41,7991	     1789,74	-27,2	     1766,96	-27,0
     41,8011	     1779,25	-25,4	      1773,9	-22,2
      41,803	     1772,09	-24,5	     1779,25	-23,6
      41,805	     1789,85	-25,1	     1778,26	-26,1
     41,8069	     1790,25	-23,9	     1766,89	-24,9
     41,8089	     1796,99	-27,3	     1785,19	-28,9
     41,8109	     1799,45	-27,5	     1801,57	-21,4
     41,8128	     1791,88	-21,4	     1797,11	-22,9
     41,8148	     1799,47	-23,8	     1799,91	-24,5
     41,8167	     1797,09	-24,2	     1798,29	-22,9
     41,8187	     1804,95	-23,1	     1803,48	-28,4
     41,8206	     1821,45	-25,7	     1801,75	-26,1
     41,8226	     1814,22	-24,4	     1792,49	-24,1
     41,8245	     1812,28	-24,6	     1800,15	-24,7
     41,8265	     1832,54	-23,9	     1810,27	-24,1
     41,8284	     1835,57	-25,0	     1818,16	-26,3
     41,8304	     1819,17	-26,6	     1837,81	-26,5
     41,8324	     1827,21	-22,0	     1845,69	-23,2
     41,8343	     1827,05	-23,0	     1823,18	-25,1
     41,8363	     1834,26	-22,9	     1821,71	-21,3
     41,8382	     1833,62	-21,5	     1841,52	-21,0
     41,8402	      1838,2	-26,2	     1846,89	-25,8
     41,8421	     1837,64	-25,5	      1847,3	-24,2
     41,8441	        1838	-21,8	      1839,2	-24,7
      41,846	     1854,82	-24,4	     1840,23	-26,2
      41,848	     1852,93	-25,6	     1846,89	-22,5
       41,85	     1826,54	-21,3	     1847,43	-25,1
     41,8519	     1836,68	-21,7	     1849,06	-23,4
     41,8539	     1882,16	-22,5	     1847,06	-23,5
     41,8558	        1892	-23,5	     1850,34	-27,0
     41,8578	     1862,93	-22,7	     1877,54	-22,5
     41,8597	     1864,96	-21,3	        1868	-22,4
     41,8617	     1862,97	-24,1	     1864,69	-22,5
     41,8636	      1884,2	-24,9	     1844,56	-23,1
     41,8656	     1887,87	-23,9	     1867,18	-27,0
     41,8675	      1875,2	-26,5	     1890,53	-27,0
     41,8695	      1887,9	-22,7	      1882,7	-24,0
     41,8715	     1900,96	-19,2	     1900,32	-24,5
     41,8734	     1912,76	-24,6	     1889,24	-21,2
     41,8754	     1907,52	-22,5	     1899,28	-21,5
     41,8773	     1909,14	-22,5	     1900,39	-25,3
     41,8793	     1911,52	-24,9	      1910,9	-23,6
     41,8812	     1928,49	-21,8	     1913,36	-24,7
     41,8832	     1922,38	-22,5	     1895,13	-27,2
     41,8851	     1926,87	-22,5	     1868,94	-23,1
     41,8871	     1919,29	-20,2	     1896,36	-24,8
     41,8891	     1915,77	-25,8	      1944,4	-23,2
      41,891	      1909,2	-25,7	     1935,59	-20,6
      41,893	     1932,75	-21,4	     1932,67	-24,9
     41,8949	     1948,59	-23,5	     1918,39	-25,2
     41,8969	     1936,48	-21,2	     1914,87	-25,1
     41,8988	     1938,96	-20,5	     1932,83	-25,4
     41,9008	     1951,62	-24,9	     1954,71	-23,0
     41,9027	     1938,01	-23,3	     1931,79	-21,9
     41,9047	      1945,8	-23,6	     1942,92	-25,0
     41,9066	     1964,99	-24,8	     1968,84	-23,1
     41,9086	     1968,23	-19,3	      1964,6	-22,7
     41,9106	      1977,9	-23,1	     1959,23	-22,2
     41,9125	     1959,47	-22,9	     1935,48	-21,0
     41,9145	     1951,05	-21,3	     1946,71	-23,0
     41,9164	     1986,16	-24,5	     1965,74	-23,4
     41,9184	     1985,77	-24,2	     1983,48	-23,6
     41,9203	     1985,37	-20,1	     1997,92	-27,1
     41,9223	     1983,83	-23,5	     1988,07	-20,5
     41,9242	      1981,5	-21,6	     1963,05	-22,6
     41,9262	     1981,47	-20,8	     1970,22	-22,1
     41,9282	     2014,93	-23,5	     1993,01	-19,8
     41,9301	     1994,93	-23,6	     2008,97	-24,0
     41,9321	     1998,67	-21,3	     2010,64	-24,1
      41,934	     1993,72	-23,2	     1997,14	-22,9
      41,936	     1997,24	-20,2	     2008,11	-24,3
     41,9379	     2027,68	-22,8	     2016,07	-21,2
     41,9399	     2019,59	-24,2	     2012,37	-17,7
     41,9418	     2023,31	-21,0	     2005,94	-21,6
     41,9438	     2029,15	-22,6	     2029,65	-22,0
     41,9457	     2027,53	-18,9	     2028,85	-20,8
     41,9477	      2028,6	-18,0	     2043,96	-25,1
     41,9497	      2026,5	-23,1	     2039,76	-24,6
     41,9516	     2045,58	-22,8	     2033,58	-22,1
     41,9536	     2066,33	-18,6	     2034,97	-24,6
     41,9555	     2086,78	-23,8	     2032,12	-20,3
     41,9575	     2065,56	-20,4	     2043,13	-20,9
     41,9594	     2041,13	-21,4	     2060,12	-22,7
     41,9614	     2041,08	-22,8	     2067,03	-22,0
     41,9633	     2050,87	-19,9	     2073,17	-23,2
     41,9653	     2072,63	-22,9	     2058,25	-23,0
     41,9673	      2062,1	-23,4	     2052,76	-22,2
     41,9692	      2065,5	-22,1	     2075,49	-22,5
     41,9712	     2080,59	-20,8	     2099,87	-21,0
     41,9731	      2090,2	-20,4	     2076,57	-18,6
     41,9751	     2085,63	-19,2	     2096,51	-24,2
      41,977	     2092,15	-17,7	     2099,79	-24,9
      41,979	     2091,32	-24,4	     2101,04	-20,7
     41,9809	     2092,23	-20,6	     2099,04	-22,7
     41,9829	     2108,47	-22,8	     2099,97	-18,6
     41,9848	     2104,48	-22,9	     2102,42	-20,0
     41,9868	     2118,44	-17,7	     2115,02	-23,4
     41,9888	     2117,44	-19,4	     2137,36	-22,3
     41,9907	     2123,65	-21,1	     2127,49	-20,9
     41,9927	     2132,06	-19,7	     2109,51	-22,8
     41,9946	     2137,51	-22,1	     2091,27	-21,8
     41,9966	     2141,18	-23,0	     2108,97	-22,6
     41,9985	     2151,19	-19,5	     2141,62	-22,3
     42,0005	     2137,61	-21,2	     2148,54	-19,6
     42,0024	     2131,48	-19,2	     2156,97	-22,1
     42,0044	     2128,88	-17,9	     2159,55	-20,0
     42,0064	     2163,09	-23,7	     2161,45	-20,4
     42,0083	     2166,37	-22,4	     2159,72	-22,0
     42,0103	     2189,34	-22,3	      2159,7	-21,9
     42,0122	     2178,28	-23,0	      2146,7	-19,3
     42,0142	      2170,4	-21,1	     2138,18	-21,8
     42,0161	     2190,87	-16,6	      2176,8	-20,4
     42,0181	     2202,99	-19,9	     2190,54	-19,2
       42,02	      2202,7	-19,6	     2197,45	-23,7
      42,022	     2188,08	-20,8	     2203,39	-21,0
     42,0239	     2167,91	-22,5	     2196,64	-19,6
     42,0259	     2174,86	-21,4	     2194,02	-22,5
     42,0279	     2198,63	-18,7	     2196,95	-19,7
     42,0298	     2206,07	-21,1	     2207,18	-18,9
     42,0318	     2210,79	-17,9	      2210,3	-20,4
     42,0337	     2205,23	-18,5	     2215,06	-20,0
     42,0357	     2226,77	-22,9	     2217,71	-19,0
     42,0376	     2235,75	-19,7	     2235,04	-21,8
     42,0396	     2246,09	-19,4	     2232,12	-19,5
     42,0415	     2245,46	-22,2	      2244,2	-20,7
     42,0435	     2249,72	-16,4	     2236,86	-20,7
     42,0455	        2262	-16,5	     2239,27	-19,2
     42,0474	     2251,39	-21,6	     2252,12	-20,2
     42,0494	     2235,98	-20,5	     2267,13	-22,1
     42,0513	     2254,92	-21,6	     2255,67	-19,6
     42,0533	      2260,3	-21,4	     2252,87	-20,9
     42,0552	     2262,52	-20,9	     2267,93	-20,9
     42,0572	     2272,04	-16,7	     2265,52	-19,7
     42,0591	     2291,02	-18,8	     2274,04	-18,7
     42,0611	     2292,15	-15,1	     2272,67	-19,8
      42,063	     2302,31	-17,1	     2279,86	-21,0
      42,065	      2307,7	-22,6	     2283,72	-18,9
      42,067	     2299,07	-20,3	     2317,93	-21,0
     42,0689	     2313,38	-19,1	     2339,75	-19,4
     42,0709	      2318,9	-19,1	     2330,02	-19,1
     42,0728	     2325,38	-15,6	     2332,25	-19,9
     42,0748	     2326,36	-16,0	     2320,17	-16,0
     42,0767	     2322,26	-21,0	     2313,16	-16,5
     42,0787	     2312,41	-19,2	     2311,18	-20,9
     42,0806	     2347,61	-20,8	     2318,17	-20,3
     42,0826	     2354,75	-20,8	     2349,76	-20,2
     42,0846	     2352,75	-19,6	     2345,94	-20,2
     42,0865	     2374,93	-17,8	     2343,08	-17,7
     42,0885	     2364,12	-17,6	     2365,43	-18,1
     42,0904	     2349,62	-17,6	     2379,19	-19,1
     42,0924	     2355,74	-15,2	     2378,95	-16,9
     42,0943	     2369,78	-21,8	     2387,91	-21,6
     42,0963	     2386,32	-18,5	     2377,44	-22,4
     42,0982	     2394,75	-18,2	     2388,74	-18,2
     42,1002	     2402,04	-21,2	     2398,01	-19,2
     42,1021	     2402,49	-18,5	     2409,28	-18,8
     42,1041	     2415,96	-15,8	     2415,84	-15,0
     42,1061	     2414,43	-17,3	     2405,03	-19,6
      42,108	     2415,75	-19,6	     2421,63	-18,8
       42,11	     2416,45	-16,1	     2425,93	-17,1
     42,1119	     2423,67	-19,5	     2425,19	-19,1
     42,1139	     2426,51	-21,3	     2421,22	-18,2
     42,1158	     2440,14	-15,3	     2424,39	-18,0
     42,1178	     2436,13	-15,9	     2429,07	-18,8
     42,1197	     2440,55	-16,1	     2444,62	-19,5
     42,1217	     2460,84	-16,8	     2448,82	-15,6
     42,1237	     2449,35	-18,5	     2448,75	-16,3
     42,1256	     2451,08	-17,8	     2463,62	-17,8
     42,1276	     2455,76	-16,4	     2483,58	-17,0
     42,1295	     2472,98	-17,4	     2469,52	-16,9
     42,1315	     2491,85	-18,8	     2472,68	-20,4
     42,1334	     2497,92	-15,7	      2469,1	-19,6
     42,1354	     2514,66	-17,1	     2487,32	-16,8
     42,1373	        2499	-18,3	     2484,74	-19,2
     42,1393	     2490,12	-15,0	     2481,31	-15,8
     42,1413	     2508,81	-16,7	      2498,1	-18,6
     42,1432	     2524,58	-17,8	     2503,79	-18,6
     42,1452	     2519,79	-17,2	     2535,32	-16,9
     42,1471	     2519,76	-17,3	     2548,12	-18,6
     42,1491	     2542,25	-18,3	     2566,75	-17,4
      42,151	     2535,84	-18,2	     2551,18	-15,4
      42,153	     2543,87	-14,4	     2548,42	-15,1
     42,1549	     2551,07	-14,6	     2558,24	-18,1
     42,1569	     2546,11	-16,1	     2556,22	-16,8
     42,1588	     2566,27	-16,2	     2553,21	-15,6
     42,1608	     2566,89	-17,6	     2568,56	-17,7
     42,1628	     2571,82	-18,7	     2572,41	-17,0
     42,1647	      2594,3	-13,6	     2584,16	-17,3
     42,1667	     2608,81	-17,0	     2604,01	-19,4
     42,1686	     2591,85	-16,2	      2602,8	-13,6
     42,1706	     2597,57	-13,0	     2605,21	-14,3
     42,1725	      2608,3	-15,7	     2609,17	-16,5
     42,1745	     2604,31	-16,9	     2618,43	-16,4
     42,1764	     2602,84	-16,5	     2609,59	-15,1
     42,1784	     2616,45	-15,9	     2607,94	-18,6
     42,1804	     2630,43	-20,4	     2631,59	-18,6
     42,1823	     2640,56	-18,0	     2650,94	-16,0
     42,1843	     2643,06	-13,1	     2638,59	-16,1
     42,1862	     2655,46	-14,5	     2643,43	-17,6
     42,1882	     2653,48	-14,9	      2653,4	-16,7
     42,1901	      2663,6	-12,4	     2666,93	-14,8
     42,1921	     2676,22	-18,4	      2673,7	-15,5
      42,194	     2669,29	-17,7	     2682,93	-13,9
      42,196	     2679,85	-14,1	     2695,11	-13,9
     42,1979	     2688,45	-16,2	     2709,63	-18,0
     42,1999	     2697,81	-16,3	     2707,37	-15,2
     42,2019	     2707,59	-14,0	     2719,37	-15,9
     42,2038	     2718,94	-13,8	     2739,59	-18,5
     42,2058	     2716,49	-14,4	     2745,84	-18,1
     42,2077	     2726,03	-12,9	     2742,57	-12,4
     42,2097	     2737,69	-10,5	      2755,8	-14,8
     42,2116	      2749,1	-12,9	     2744,85	-12,2
     42,2136	     2742,58	-15,0	     2751,68	-14,0
     42,2155	     2755,18	-14,7	     2765,97	-15,5
     42,2175	     2783,35	-16,7	     2768,38	-17,9
     42,2195	     2776,08	-17,8	     2764,46	-14,2
     42,2214	      2785,9	-11,9	     2784,55	-14,1
     42,2234	     2782,74	-12,9	     2778,73	-15,1
     42,2253	     2783,37	-14,2	     2786,83	-14,6
     42,2273	     2791,19	-13,2	     2802,08	-13,3
     42,2292	     2806,33	-12,6	     2792,42	-14,4
     42,2312	     2816,87	-14,6	     2804,21	-15,9
     42,2331	     2817,31	-12,6	     2814,67	-12,0
     42,2351	     2819,43	-12,7	     2816,11	-13,4
      42,237	     2810,52	-15,0	     2857,45	-14,0
      42,239	     2811,66	-15,4	     2875,34	-11,6
      42,241	     2836,52	-10,0	      2862,7	-16,1
     42,2429	     2852,04	-12,1	     2880,69	-15,5
     42,2449	     2844,96	-12,5	     2880,97	-13,7
     42,2468	      2853,3	-11,2	     2868,58	-12,3
     42,2488	     2870,94	-10,3	     2887,52	-13,1
     42,2507	     2885,79	-15,5	      2905,7	-13,5
     42,2527	      2884,4	-15,0	     2903,41	-11,5
     42,2546	      2899,5	-13,5	     2913,42	-11,9
     42,2566	     2899,09	-14,8	      2926,6	-13,6
     42,2586	     2901,27	-13,2	     2931,31	-10,7
     42,2605	     2912,35	-11,7	     2936,48	-16,7
     42,2625	     2939,72	-11,0	     2948,29	-14,8
     42,2644	     2938,58	-13,2	     2937,75	-12,4
     42,2664	     2928,33	-10,4	     2941,45	-14,7
     42,2683	      2941,9	-9,2	     2961,18	-15,9
     42,2703	     2960,36	-15,8	     2963,84	-9,9
     42,2722	     2947,95	-13,8	      2991,3	-12,5
     42,2742	     2968,84	-11,7	     3005,09	-13,0
     42,2761	     2978,26	-13,0	     3021,72	-12,0
     42,2781	     2977,67	-10,2	     3022,91	-10,4
     42,2801	     3004,05	-9,4	     3025,18	-13,1
      42,282	     3032,49	-9,8	     3012,49	-12,4
      42,284	      3024,1	-12,6	     3018,17	-11,1
     42,2859	     3029,14	-9,7	      3032,8	-14,1
     42,2879	     3029,45	-8,6	     3049,45	-14,2
     42,2898	     3038,08	-12,0	      3065,1	-10,2
     42,2918	     3043,11	-13,1	     3072,36	-10,1
     42,2937	      3071,1	-10,6	     3070,79	-11,4
     42,2957	     3076,22	-12,8	     3075,08	-9,8
     42,2977	     3070,36	-8,9	     3080,27	-10,3
     42,2996	     3082,54	-9,6	     3110,31	-8,8
     42,3016	     3097,43	-10,0	      3128,8	-9,5
     42,3035	     3119,13	-11,1	     3139,02	-9,9
     42,3055	        3129	-6,5	     3139,65	-14,4
     42,3074	     3121,25	-5,5	     3142,84	-13,0
     42,3094	     3133,97	-12,8	     3153,08	-9,4
     42,3113	     3128,32	-11,5	     3159,01	-10,0
     42,3133	      3128,5	-7,0	     3170,96	-10,5
     42,3153	     3143,08	-10,1	      3190,1	-12,7
     42,3172	     3165,54	-11,6	     3189,72	-6,9
     42,3192	     3196,16	-8,2	     3191,28	-9,9
     42,3211	      3194,4	-9,8	     3218,34	-9,6
     42,3231	     3208,42	-10,7	     3205,81	-7,5
      42,325	     3216,29	-11,1	     3205,39	-10,8
      42,327	     3213,46	-5,3	     3211,44	-10,8
     42,3289	     3193,19	-5,6	     3228,17	-8,9
     42,3309	     3200,37	-10,8	     3245,99	-9,2
     42,3328	     3191,01	-8,6	     3270,08	-12,6
     42,3348	     3199,47	-6,1	     3284,38	-12,3
     42,3368	     3218,58	-11,1	     3279,37	-7,6
     42,3387	     3237,51	-9,9	     3292,85	-8,4
     42,3407	     3268,32	-6,8	      3300,2	-7,8
     42,3426	     3278,83	-8,1	     3312,38	-7,2
     42,3446	      3284,1	-8,5	     3326,61	-8,9
     42,3465	     3293,95	-8,0	     3330,39	-9,3
     42,3485	     3302,86	-7,6	     3353,42	-7,6
     42,3504	     3313,26	-7,6	     3352,71	-7,4
     42,3524	     3327,82	-8,1	     3372,42	-10,8
     42,3544	     3316,96	-4,6	      3386,8	-11,8
     42,3563	     3327,84	-4,7	     3391,47	-8,1
     42,3583	     3355,77	-8,2	     3381,21	-8,7
     42,3602	     3368,68	-7,2	     3396,33	-9,0
     42,3622	     3397,32	-9,2	      3403,9	-7,2
     42,3641	     3390,31	-8,6	     3423,71	-6,3
     42,3661	     3398,77	-9,6	     3437,15	-7,3
      42,368	      3414,5	-5,0	     3446,15	-7,0
       42,37	     3435,59	-6,0	     3464,74	-3,8
     42,3719	     3444,17	-6,9	     3464,99	-5,6
     42,3739	     3432,99	-3,4	     3491,26	-9,6
     42,3759	     3437,88	-1,9	     3493,55	-8,4
     42,3778	     3463,92	-6,6	     3494,53	-6,0
     42,3798	        3478	-7,4	     3497,71	-8,8
     42,3817	     3491,82	-4,7	     3520,15	-7,2
     42,3837	     3510,21	-4,8	     3535,19	-5,9
     42,3856	     3516,32	-6,9	     3533,27	-6,4
     42,3876	     3509,66	-5,5	     3546,24	-8,0
     42,3895	      3527,2	-4,3	     3557,62	-2,8
     42,3915	      3541,9	-6,2	        3560	-4,0
     42,3935	     3566,41	-7,1	     3585,51	-5,8
     42,3954	     3556,71	-2,7	     3599,34	-5,6
     42,3974	     3566,22	-3,5	     3609,36	-3,4
     42,3993	     3571,01	-3,3	     3626,03	-4,5
     42,4013	     3580,08	-4,4	     3645,43	-4,1
     42,4032	     3589,23	-3,4	     3662,02	-6,5
     42,4052	     3608,09	-0,8	     3671,55	-1,9
     42,4071	      3619,2	-7,2	     3664,99	-5,2
     42,4091	     3621,46	-4,7	      3669,3	-8,4
      42,411	     3642,45	-5,1	     3686,57	-2,8
      42,413	     3637,49	-4,6	     3696,97	-5,4
      42,415	     3675,88	-5,3	     3713,95	-5,6
     42,4169	     3682,47	-4,5	     3734,19	-3,6
     42,4189	     3705,09	-2,1	     3742,72	-2,5
     42,4208	     3708,41	-4,2	     3752,08	-3,0
     42,4228	     3722,21	 0,3	      3757,2	-3,1
     42,4247	     3733,51	-1,0	     3761,25	-1,1
     42,4267	     3747,52	-3,7	     3775,39	 0,9
     42,4286	     3745,36	-3,0	     3791,02	-4,1
     42,4306	      3735,8	-2,1	     3821,39	-2,7
     42,4326	     3747,68	-0,3	     3848,33	-0,7
     42,4345	     3761,68	 1,0	     3850,82	-3,5
     42,4365	     3783,86	-2,7	     3857,32	-5,0
     42,4384	     3800,28	-1,9	     3868,12	-3,6
     42,4404	     3830,98	-1,6	     3859,77	-2,1
     42,4423	     3849,71	-3,1	     3880,57	-1,7
     42,4443	     3838,83	-2,1	     3891,59	-2,8
     42,4462	     3855,97	-1,4	     3903,68	-2,8
     42,4482	      3874,5	 0,0	     3906,93	 0,1
     42,4501	     3879,76	-1,8	     3924,79	 0,3
     42,4521	     3886,94	 2,2	     3958,56	-0,3
     42,4541	     3913,06	 1,3	     3968,69	 1,5
      42,456	     3910,16	-1,4	     3969,32	 0,3
      42,458	     3924,44	-0,1	      3992,6	-0,9
     42,4599	     3935,99	 1,6	     4002,21	 1,5
     42,4619	     3948,45	 3,2	     4010,15	 1,6
     42,4638	     3965,67	-2,6	     4023,41	-3,9
     42,4658	     3973,62	-0,9	     4056,18	-2,0
     42,4677	     3990,01	 0,2	     4056,03	 1,4
     42,4697	     3999,89	-0,2	     4071,02	 1,0
     42,4717	     4005,61	 0,6	     4083,03	-1,8
     42,4736	     4023,71	 2,9	     4094,14	-0,9
     42,4756	     4031,65	 0,4	     4110,56	 1,6
     42,4775	     4054,48	 0,9	     4120,49	 1,9
     42,4795	     4073,37	 0,5	     4127,11	 1,6
     42,4814	     4086,68	 3,5	     4150,62	-0,0
     42,4834	     4105,02	 4,9	     4144,38	 2,1
     42,4853	     4109,01	 0,4	     4143,01	 2,0
     42,4873	     4125,94	 2,3	     4176,58	 1,3
     42,4892	     4142,78	 5,5	     4201,86	 5,3
     42,4912	     4155,53	 7,2	      4218,5	 6,8
     42,4932	     4179,02	 1,8	     4223,11	 1,9
     42,4951	      4184,6	 1,4	     4229,42	 2,7
     42,4971	      4198,5	 5,3	     4244,46	 5,2
      42,499	     4191,58	 4,7	     4258,31	 1,0
      42,501	     4213,77	 1,8	     4278,64	 1,4
     42,5029	     4214,66	 2,2	     4293,63	 2,5
     42,5049	     4235,44	 2,1	     4326,56	 4,9
     42,5068	     4267,95	 5,5	     4338,03	 3,5
     42,5088	     4281,01	 4,4	     4366,65	 2,8
     42,5108	     4288,29	 5,4	     4363,42	 1,7
     42,5127	     4305,18	 4,5	     4372,56	 6,1
     42,5147	      4323,9	 7,8	     4393,23	 5,8
     42,5166	     4326,12	 5,1	     4411,13	 3,8
     42,5186	     4336,75	 7,0	     4431,57	 4,7
     42,5205	     4349,35	 8,5	     4433,95	 8,6
     42,5225	     4377,15	 6,2	     4454,63	 7,5
     42,5244	     4392,44	 6,6	      4464,8	 5,8
     42,5264	        4417	 7,8	     4464,81	 7,3
     42,5283	     4421,19	10,2	     4488,54	 7,8
     42,5303	     4440,07	 7,6	        4498	 8,4
     42,5323	     4441,31	 5,6	     4535,24	 6,9
     42,5342	     4446,04	 7,7	     4545,12	10,3
     42,5362	     4462,41	 8,7	     4561,47	 5,7
     42,5381	     4472,73	 9,4	     4577,08	 6,1
     42,5401	     4490,57	 5,9	     4597,33	 8,2
      42,542	     4497,59	 7,1	     4612,13	 8,5
      42,544	     4526,29	11,0	     4619,43	 7,1
     42,5459	     4541,92	 9,3	        4645	 6,8
     42,5479	     4547,06	 7,0	     4649,67	 7,3
     42,5499	     4546,86	 6,6	     4675,88	10,0
     42,5518	     4568,28	11,0	     4671,74	10,1
     42,5538	     4604,56	10,2	     4690,69	 7,6
     42,5557	     4610,66	10,1	      4699,4	 7,3
     42,5577	     4620,14	10,3	     4714,54	12,4
     42,5596	     4629,17	14,0	     4726,04	11,3
     42,5616	     4629,49	13,2	     4745,74	 9,6
     42,5635	     4634,98	11,3	     4772,86	10,2
     42,5655	     4643,87	12,7	     4793,61	13,5
     42,5674	     4673,36	13,7	     4799,13	13,8
     42,5694	     4685,82	13,2	     4820,74	10,8
     42,5714	     4686,53	10,3	     4831,31	14,3
     42,5733	     4706,87	11,5	      4857,4	14,0
     42,5753	     4735,34	15,6	     4862,81	14,5
     42,5772	     4748,49	14,2	     4867,97	11,6
     42,5792	     4757,85	11,9	     4862,35	12,5
     42,5811	     4767,26	12,9	     4878,58	15,4
     42,5831	     4776,17	13,6	        4891	14,1
      42,585	     4812,22	14,0	     4910,36	11,2
      42,587	     4828,83	11,8	     4929,35	12,5
      42,589	     4834,09	12,9	     4953,01	14,2
     42,5909	     4848,76	15,0	     4961,09	16,3
     42,5929	     4873,76	15,8	     4992,88	11,9
     42,5948	     4895,83	15,3	     4998,38	13,1
     42,5968	     4891,47	15,5	     5005,31	16,7
     42,5987	     4898,52	15,7	     5007,98	14,7
     42,6007	     4909,16	17,9	     5039,73	14,5
     42,6026	     4929,42	16,3	     5057,68	15,0
     42,6046	     4934,41	18,2	     5059,25	19,5
     42,6065	     4947,13	18,5	     5076,31	17,6
     42,6085	     4971,54	18,2	     5087,18	16,0
     42,6105	     4987,98	18,6	      5113,7	15,5
     42,6124	     4998,71	18,2	     5120,53	21,5
     42,6144	     5016,89	20,0	     5119,86	20,2
     42,6163	     5037,66	20,6	     5131,91	17,8
     42,6183	     5048,83	21,2	     5139,76	17,4
     42,6202	     5056,71	16,8	     5168,06	20,8
     42,6222	     5061,69	18,4	     5191,81	22,1
     42,6241	     5090,04	20,2	     5207,36	18,3
     42,6261	     5097,36	21,2	     5214,85	20,2
     42,6281	      5107,8	17,2	     5220,71	21,4
       42,63	     5116,55	18,4	     5228,67	23,8
      42,632	     5120,25	19,7	      5252,1	18,9
     42,6339	     5142,82	19,6	     5256,31	20,4
     42,6359	     5135,62	19,5	     5274,03	22,4
     42,6378	     5151,16	18,7	     5285,79	20,6
     42,6398	     5166,86	24,2	     5304,13	20,0
     42,6417	     5195,44	22,7	     5325,72	20,1
     42,6437	     5209,76	22,4	      5318,6	21,4
     42,6456	     5228,93	21,8	      5317,6	21,9
     42,6476	     5244,29	22,3	      5335,7	22,4
     42,6496	     5245,93	24,2	     5358,18	21,6
     42,6515	     5260,76	23,3	     5362,88	22,5
     42,6535	     5260,82	22,5	     5377,15	25,0
     42,6554	     5272,09	25,0	     5375,82	22,1
     42,6574	     5293,95	26,6	     5397,78	23,6
     42,6593	     5299,76	27,6	     5404,19	28,0
     42,6613	     5309,62	26,0	     5409,96	27,3
     42,6632	     5323,31	23,4	     5424,75	23,7
     42,6652	     5349,36	29,0	     5431,82	25,7
     42,6672	     5370,82	29,6	     5455,89	24,3
     42,6691	     5356,67	25,3	     5455,78	28,8
     42,6711	     5378,28	26,1	     5457,14	27,5
      42,673	     5385,58	30,0	     5464,57	26,5
      42,675	     5387,05	30,0	     5480,04	27,9
     42,6769	     5413,41	25,3	     5489,66	31,0
     42,6789	     5422,32	27,7	     5493,32	31,3
     42,6808	     5447,56	28,8	     5510,31	29,2
     42,6828	     5445,54	31,9	     5513,23	30,9
     42,6847	     5452,16	28,6	     5515,11	31,8
     42,6867	     5456,99	28,7	     5519,49	30,6
     42,6887	     5456,69	27,7	     5529,32	30,0
     42,6906	      5471,9	30,2	     5560,17	29,6
     42,6926	     5485,87	30,3	      5565,4	31,5
     42,6945	     5502,81	26,4	     5556,86	33,8
     42,6965	     5520,06	29,4	     5599,27	31,1
     42,6984	     5520,96	29,5	     5603,53	30,8
     42,7004	     5530,57	31,5	     5613,47	32,6
     42,7023	     5524,36	31,9	      5615,4	31,6
     42,7043	     5532,95	30,3	     5613,18	31,0
     42,7063	     5529,08	30,5	     5622,94	30,1
     42,7082	     5570,81	34,8	     5628,43	32,5
     42,7102	     5588,72	34,7	     5652,76	32,9
     42,7121	     5596,77	31,5	     5658,91	34,5
     42,7141	     5595,11	30,1	     5657,06	33,8
      42,716	     5595,87	35,5	     5661,27	33,8
      42,718	     5595,64	35,5	     5671,43	34,6
     42,7199	     5600,41	33,2	     5673,58	36,0
     42,7219	     5615,63	33,9	     5677,82	35,4
     42,7239	     5624,11	33,9	     5682,08	35,2
     42,7258	     5634,14	36,4	     5693,37	35,7
     42,7278	     5644,19	36,4	     5704,13	37,9
     42,7297	      5646,1	35,1	     5707,84	36,5
     42,7317	     5628,05	37,1	     5711,68	38,6
     42,7336	     5650,66	36,9	     5718,71	37,4
     42,7356	     5668,95	39,9	     5718,65	38,1
     42,7375	     5674,17	38,8	     5714,35	39,2
     42,7395	     5673,65	35,8	     5703,55	37,4
     42,7414	        5671	36,4	     5725,27	39,7
     42,7434	     5691,16	40,7	     5714,84	39,1
     42,7454	     5699,41	41,8	      5706,2	42,7
     42,7473	     5704,22	39,8	     5717,73	41,6
     42,7493	     5699,13	40,1	     5724,06	39,5
     42,7512	     5689,41	38,3	     5736,23	41,6
     42,7532	     5690,66	42,4	     5739,27	44,8
     42,7551	      5713,4	42,9	     5752,11	42,2
     42,7571	     5718,76	41,2	      5746,6	42,4
      42,759	     5723,72	43,4	     5753,03	42,2
      42,761	     5726,08	43,6	     5757,53	44,5
      42,763	     5729,69	44,1	     5751,71	45,2
     42,7649	     5735,03	44,3	     5754,04	45,4
     42,7669	     5733,64	43,3	     5750,02	43,6
     42,7688	     5732,91	45,0	     5747,66	44,0
     42,7708	     5748,13	45,4	     5750,29	47,2
     42,7727	     5736,61	46,3	     5746,63	46,2
     42,7747	     5746,17	45,8	     5754,06	43,9
     42,7766	     5753,99	44,3	     5767,78	45,5
     42,7786	     5754,52	45,8	     5758,89	48,0
     42,7805	     5739,26	48,5	     5757,03	48,8
     42,7825	     5745,26	48,4	      5748,8	47,8
     42,7845	     5757,51	46,9	     5754,72	45,8
     42,7864	     5767,02	46,2	      5755,9	48,5
     42,7884	     5749,55	47,7	     5752,28	47,9
     42,7903	     5761,39	49,7	     5752,48	48,1
     42,7923	     5776,94	48,0	     5746,21	48,1
     42,7942	     5774,35	48,1	     5738,05	47,9
     42,7962	     5774,43	48,8	     5748,56	51,1
     42,7981	     5748,17	51,1	     5737,56	50,0
     42,8001	     5774,04	50,9	     5742,73	47,6
     42,8021	     5753,39	52,3	     5731,99	48,5
      42,804	     5747,64	48,6	     5734,94	48,3
      42,806	      5726,3	50,0	     5718,04	51,2
     42,8079	     5736,32	52,2	     5718,16	49,6
     42,8099	     5718,26	54,1	     5712,21	50,6
     42,8118	     5725,69	50,0	     5705,26	48,2
     42,8138	     5735,04	52,0	     5686,34	51,1
     42,8157	     5728,59	52,4	     5709,07	52,4
     42,8177	     5732,82	53,8	     5706,77	53,5
     42,8196	     5730,38	53,5	     5700,74	49,6
     42,8216	     5719,01	53,9	     5706,91	52,8
     42,8236	     5699,44	52,3	     5729,31	52,3
     42,8255	      5702,1	52,9	     5700,55	54,6
     42,8275	     5709,21	55,0	     5697,46	49,7
     42,8294	     5703,91	56,1	     5691,75	50,9
     42,8314	     5702,67	54,9	     5690,79	52,5
     42,8333	     5705,45	54,5	     5688,45	54,4
     42,8353	     5703,53	56,6	     5675,45	56,8
     42,8372	     5700,95	57,3	     5656,45	52,6
     42,8392	     5700,33	57,4	     5657,18	54,5
     42,8412	     5698,76	56,6	     5669,65	54,3
     42,8431	     5691,79	56,2	     5664,24	56,1
     42,8451	     5678,46	57,5	     5656,13	57,0
      42,847	     5647,72	57,8	     5631,57	53,6
      42,849	     5666,17	60,2	     5633,74	55,1
     42,8509	     5656,84	55,7	     5628,94	55,3
     42,8529	     5662,52	57,4	     5640,42	58,5
     42,8548	     5649,56	59,4	     5632,59	58,6
     42,8568	     5646,92	61,0	     5622,01	54,9
     42,8587	     5653,08	61,5	     5614,06	56,1
     42,8607	     5634,55	59,8	     5612,09	57,9
     42,8627	     5623,32	59,0	     5601,57	59,6
     42,8646	     5611,08	61,0	     5586,25	56,3
     42,8666	     5605,45	60,5	     5571,03	57,2
     42,8685	     5605,45	63,5	     5574,96	57,2
     42,8705	     5596,17	63,5	        5567	60,7
     42,8724	     5591,79	60,7	     5550,62	62,3
     42,8744	     5584,38	61,3	     5532,72	59,7
     42,8763	      5580,1	63,8	     5519,23	61,7
     42,8783	      5565,7	66,1	     5508,82	59,4
     42,8803	     5526,42	62,5	     5500,65	62,5
     42,8822	     5533,92	61,2	     5512,23	63,7
     42,8842	      5534,6	61,1	     5502,95	59,4
     42,8861	     5521,41	64,0	     5476,33	60,8
     42,8881	     5533,36	63,9	     5496,63	62,0
       42,89	     5545,09	65,3	     5508,19	63,7
      42,892	     5535,82	64,1	     5480,38	62,0
     42,8939	     5513,24	64,6	     5464,14	64,5
     42,8959	     5501,01	62,1	     5442,95	60,2
     42,8979	      5507,1	67,0	     5452,34	62,9
     42,8998	     5502,46	64,5	     5443,71	63,9
     42,9018	     5506,23	63,4	     5465,68	65,8
     42,9037	     5493,39	63,1	     5451,36	65,8
     42,9057	     5467,63	66,9	     5445,09	63,2
     42,9076	     5470,54	65,6	     5420,83	64,2
     42,9096	     5457,31	66,6	     5418,29	66,7
     42,9115	     5459,99	66,0	     5420,49	67,8
     42,9135	     5437,19	64,8	     5396,41	65,2
     42,9154	     5442,07	64,9	     5385,65	66,4
     42,9174	     5416,47	68,8	     5388,21	65,1
     42,9194	     5410,96	67,3	     5386,75	68,6
     42,9213	     5389,26	67,2	     5342,87	67,5
     42,9233	     5380,35	66,0	     5332,19	69,6
     42,9252	     5364,56	68,8	     5305,58	66,1
     42,9272	      5357,2	67,3	     5297,38	67,4
     42,9291	     5341,07	69,8	     5305,59	69,4
     42,9311	     5343,59	69,9	     5294,26	71,5
      42,933	     5336,47	66,8	     5284,32	71,7
      42,935	     5327,52	66,1	     5271,22	68,5
      42,937	      5316,9	68,8	     5281,73	69,0
     42,9389	     5311,21	68,6	     5275,38	72,5
     42,9409	     5300,23	69,7	     5283,33	73,4
     42,9428	     5294,97	70,5	     5255,11	71,5
     42,9448	     5286,09	66,6	     5233,45	71,8
     42,9467	     5283,17	69,1	     5209,26	70,0
     42,9487	     5263,91	71,7	     5206,84	70,4
     42,9506	     5252,98	71,5	     5197,97	75,8
     42,9526	     5232,66	72,8	     5200,38	72,3
     42,9545	        5229	71,1	     5181,17	70,9
     42,9565	     5222,87	68,5	     5183,31	71,5
     42,9585	     5185,41	71,9	     5184,43	74,1
     42,9604	     5182,85	72,6	     5164,72	72,5
     42,9624	     5170,45	75,4	     5132,12	73,5
     42,9643	     5149,74	72,4	     5126,45	72,9
     42,9663	     5145,53	73,1	     5108,84	72,9
     42,9682	     5146,01	71,9	     5083,06	71,9
     42,9702	     5152,48	75,1	     5088,75	76,7
     42,9721	     5155,71	75,8	     5084,45	75,1
     42,9741	     5126,47	76,7	     5067,96	73,5
     42,9761	     5106,79	74,1	     5066,86	74,1
      42,978	     5108,52	75,4	      5044,7	71,0
       42,98	     5100,32	73,2	     5035,52	75,1
     42,9819	     5080,47	78,9	     5032,24	74,1
     42,9839	     5060,68	77,1	     5023,19	76,0
     42,9858	     5058,67	76,5	      5008,1	73,7
     42,9878	     5063,81	76,7	     4989,44	74,7
     42,9897	     5031,24	76,2	     4979,06	72,6
     42,9917	     5026,69	76,3	     4970,23	76,2
     42,9936	     5020,29	79,1	     4972,81	75,7
     42,9956	     5001,01	78,8	     4967,84	76,5
     42,9976	     4981,66	77,2	     4938,09	74,3
     42,9995	     4979,14	75,8	     4925,91	75,5
     43,0015	      4959,6	78,1	     4925,38	75,2
     43,0034	     4955,97	76,4	     4903,28	76,7
     43,0054	     4944,22	79,9	      4884,2	78,1
     43,0073	     4955,97	78,6	     4884,31	79,6
     43,0093	     4917,46	76,3	     4860,16	74,3
     43,0112	     4903,09	75,9	     4857,44	76,2
     43,0132	     4880,06	79,9	     4849,84	79,7
     43,0152	     4874,78	79,4	        4824	79,2
     43,0171	     4864,88	80,0	      4812,7	77,2
     43,0191	     4858,09	78,9	     4792,52	79,6
      43,021	     4865,55	77,3	     4791,47	80,2
      43,023	     4856,91	76,1	      4790,7	80,1
     43,0249	     4839,28	78,2	     4778,35	82,1
     43,0269	     4823,84	80,5	      4747,6	83,8
     43,0288	     4810,95	82,3	     4746,59	82,7
     43,0308	     4808,11	81,7	     4735,01	78,5
     43,0327	     4798,28	79,1	      4746,2	81,0
     43,0347	     4790,51	80,6	     4732,45	79,0
     43,0367	     4772,04	80,9	     4719,48	82,7
     43,0386	     4766,44	82,3	     4721,65	81,8
     43,0406	     4735,01	84,7	     4695,78	82,2
     43,0425	      4721,6	83,8	      4678,3	80,5
     43,0445	     4716,12	81,5	     4661,04	81,2
     43,0464	     4694,05	83,1	     4649,53	80,1
     43,0484	      4678,2	82,4	     4646,72	85,2
     43,0503	     4669,31	86,2	     4638,59	83,6
     43,0523	     4652,09	84,3	     4627,63	78,7
     43,0543	     4644,34	83,8	     4611,09	78,9
     43,0562	     4631,48	83,3	     4599,74	81,2
     43,0582	     4621,15	80,6	        4597	82,7
     43,0601	      4608,6	83,8	     4593,24	81,7
     43,0621	     4595,52	82,5	     4577,46	82,5
      43,064	     4587,42	83,9	     4566,12	78,3
      43,066	     4595,61	83,9	     4552,78	81,3
     43,0679	     4565,27	81,2	     4556,28	81,7
     43,0699	     4571,34	82,1	      4546,8	84,5
     43,0718	     4559,61	85,4	     4531,39	83,8
     43,0738	     4539,59	84,3	     4519,95	84,8
     43,0758	     4531,67	84,2	     4495,88	85,3
     43,0777	     4506,65	84,0	     4471,02	82,5
     43,0797	     4499,54	82,7	     4470,15	84,9
     43,0816	     4499,63	84,0	      4468,8	86,7
     43,0836	     4478,66	87,2	     4451,41	87,6
     43,0855	     4477,52	86,6	     4429,11	85,4
     43,0875	     4472,77	85,0	     4421,65	85,4
     43,0894	     4483,27	88,4	     4405,51	85,4
     43,0914	     4454,57	85,5	      4410,2	86,8
     43,0934	     4435,99	85,8	     4405,18	85,0
     43,0953	     4415,85	86,3	      4386,3	88,4
     43,0973	     4401,72	89,0	     4381,62	87,5
     43,0992	     4391,22	88,7	      4364,2	85,5
     43,1012	     4386,74	87,7	     4364,05	86,2
     43,1031	     4358,58	86,7	     4344,89	85,3
     43,1051	        4351	86,1	     4333,93	84,4
      43,107	      4343,9	88,8	      4325,9	86,9
      43,109	     4341,07	86,1	     4302,86	88,9
     43,1109	     4338,15	90,0	     4299,38	85,0
     43,1129	     4317,87	89,4	     4290,59	86,2
     43,1149	     4327,13	88,3	      4276,7	86,4
     43,1168	     4299,53	86,0	     4267,78	88,9
     43,1188	      4293,7	85,4	     4272,86	89,8
     43,1207	     4267,27	88,8	     4255,75	89,5
     43,1227	     4248,95	88,9	     4230,04	85,0
     43,1246	     4224,51	90,4	      4225,4	88,6
     43,1266	     4227,86	90,3	     4229,96	89,2
     43,1285	     4220,53	90,9	     4214,43	91,1
     43,1305	     4214,43	89,1	     4202,58	90,1
     43,1325	     4190,14	91,3	     4175,26	92,4
     43,1344	      4191,7	90,6	     4177,37	91,3
     43,1364	     4186,51	92,6	     4151,82	88,3
     43,1383	     4173,65	91,9	     4152,95	88,9
     43,1403	     4161,62	90,8	     4147,68	89,6
     43,1422	     4162,53	90,2	     4149,58	87,2
     43,1442	     4150,54	89,4	      4131,3	91,2
     43,1461	     4128,74	94,4	     4101,86	90,0
     43,1481	     4119,29	92,8	     4094,74	88,2
       43,15	     4112,65	91,3	     4089,38	87,9
      43,152	     4105,37	90,1	     4086,15	88,5
      43,154	     4094,29	89,9	     4071,77	89,6
     43,1559	     4080,36	88,1	     4060,06	90,7
     43,1579	     4067,34	90,7	     4043,22	92,5
     43,1598	     4053,47	91,2	     4021,66	89,2
     43,1618	     4047,65	92,0	     4004,46	91,6
     43,1637	        4045	93,7	     3996,29	89,9
     43,1657	     4022,82	89,5	     3983,95	92,2
     43,1676	     4006,46	92,1	     3990,91	94,2
     43,1696	     3990,54	91,7	     3973,65	93,8
     43,1716	     3988,88	93,7	     3954,94	91,6
     43,1735	     3983,45	94,4	     3951,26	92,0
     43,1755	     3965,85	96,2	     3937,71	90,6
     43,1774	     3963,71	94,7	     3923,44	90,9
     43,1794	     3955,21	93,5	     3921,61	90,8
     43,1813	     3958,45	90,6	     3931,87	92,9
     43,1833	     3915,97	94,1	     3927,45	94,0
     43,1852	     3905,06	92,2	     3905,94	92,0
     43,1872	     3906,45	92,9	     3891,34	93,0
     43,1891	     3890,55	93,3	     3881,88	90,0
     43,1911	     3894,91	94,7	     3879,95	92,6
     43,1931	     3898,54	92,5	      3864,7	92,9
      43,195	     3883,87	92,5	     3852,02	93,2
      43,197	     3854,34	92,0	     3849,88	95,5
     43,1989	        3852	94,8	     3822,94	96,7
     43,2009	     3842,54	96,1	     3806,52	95,5
     43,2028	     3817,56	98,0	     3814,07	94,0
     43,2048	      3796,2	97,8	     3792,55	96,2
     43,2067	     3787,21	96,4	     3792,74	93,9
     43,2087	     3790,74	96,0	     3793,15	97,0
     43,2107	     3780,33	94,4	     3788,84	94,5
     43,2126	     3773,07	96,5	      3766,7	93,5
     43,2146	     3773,66	95,6	     3754,27	94,6
     43,2165	     3761,62	97,4	     3742,64	91,6
     43,2185	     3751,14	97,3	     3725,14	92,4
     43,2204	     3766,63	93,3	     3714,71	95,3
     43,2224	     3753,19	91,8	     3698,54	96,0
     43,2243	     3742,22	95,5	     3692,17	95,0
     43,2263	     3736,51	96,1	     3694,09	97,3
     43,2282	     3725,19	97,4	     3677,64	92,8
     43,2302	      3712,8	98,3	     3667,65	95,5
     43,2322	     3692,42	99,5	     3655,71	98,3
     43,2341	     3661,63	99,3	     3656,16	99,4
     43,2361	     3638,35	95,8	     3658,65	99,9
      43,238	     3645,27	97,3	     3661,84	99,0
       43,24	     3652,96	98,7	     3636,84	97,2
     43,2419	     3640,74	97,8	     3645,43	95,7
     43,2439	     3636,41	99,6	     3637,76	95,8
     43,2458	     3617,51	97,9	     3625,92	94,7
     43,2478	     3615,78	98,8	     3609,61	95,7
     43,2498	     3583,03	95,6	     3593,51	96,5
     43,2517	     3566,93	94,7	     3565,38	98,1
     43,2537	        3580	97,0	     3562,79	97,7
     43,2556	     3572,71	98,2	     3538,96	96,8
     43,2576	     3566,37	99,6	     3535,48	96,8
     43,2595	     3543,63	101,2	     3545,17	97,4
     43,2615	     3530,57	98,4	     3529,81	99,0
     43,2634	     3526,35	100,3	     3524,01	97,4
     43,2654	      3519,2	98,3	      3523,8	100,7
     43,2673	      3504,3	98,2	     3521,35	98,1
     43,2693	      3514,9	99,7	     3497,86	96,6
     43,2713	     3500,83	99,6	      3487,8	94,7
     43,2732	     3496,89	100,4	     3475,07	96,7
     43,2752	      3489,6	99,1	     3464,07	96,9
     43,2771	     3466,62	96,3	     3468,87	97,3
     43,2791	     3469,88	97,6	      3463,6	99,8
      43,281	     3443,79	96,2	     3444,09	99,3
      43,283	     3444,69	97,8	     3428,71	100,1
     43,2849	     3454,79	99,5	     3409,82	98,5
     43,2869	     3431,66	101,0	     3415,95	101,4
     43,2889	      3439,8	101,5	     3408,24	99,8
     43,2908	     3422,08	103,1	     3417,82	99,2
     43,2928	     3418,82	100,6	     3401,64	101,3
     43,2947	     3410,27	100,7	      3396,1	100,2
     43,2967	     3385,55	100,2	     3384,04	99,4
     43,2986	     3370,42	96,8	     3378,75	98,6
     43,3006	     3360,23	100,4	     3382,75	95,8
     43,3025	     3353,44	100,3	     3362,09	97,4
     43,3045	     3347,13	100,1	     3343,22	98,4
     43,3064	     3355,97	100,9	     3325,93	100,4
     43,3084	     3356,87	98,8	     3319,07	102,4
     43,3104	     3333,15	101,4	     3315,82	101,9
     43,3123	     3309,65	101,7	     3290,25	103,0
     43,3143	     3276,74	101,0	     3279,55	101,1
     43,3162	     3296,87	104,3	     3283,96	99,9
     43,3182	     3282,54	102,6	     3270,54	100,2
     43,3201	     3297,39	102,6	     3272,47	99,8
     43,3221	     3275,53	103,0	     3276,84	100,8
      43,324	     3281,18	99,0	     3254,16	100,9
      43,326	      3266,5	97,7	     3252,55	101,3
      43,328	      3265,4	99,3	     3241,84	101,6
     43,3299	     3246,55	98,7	        3228	103,3
     43,3319	     3255,39	102,5	     3210,59	100,9
     43,3338	     3245,02	102,4	     3206,82	99,9
     43,3358	     3223,53	104,2	     3212,91	101,5
     43,3377	     3218,68	104,7	     3208,22	104,0
     43,3397	     3208,95	105,1	     3203,12	103,5
     43,3416	     3187,64	101,9	     3197,22	103,9
     43,3436	     3172,19	101,5	     3217,07	102,1
     43,3456	     3164,33	101,8	     3203,72	100,2
     43,3475	     3167,12	99,4	     3192,23	99,1
     43,3495	     3168,47	102,7	      3162,8	100,5
     43,3514	     3178,41	103,0	     3145,07	99,9
     43,3534	     3162,58	102,2	     3128,93	101,9
     43,3553	     3160,66	105,7	     3133,53	104,2
     43,3573	      3141,9	100,3	     3135,12	105,6
     43,3592	     3131,65	103,0	     3130,66	106,3
     43,3612	      3120,3	101,8	     3129,49	104,1
     43,3631	      3121,8	103,8	      3110,1	103,4
     43,3651	     3112,11	106,5	     3104,13	102,1
     43,3671	     3112,45	103,5	     3103,75	100,8
      43,369	     3107,99	103,2	     3097,06	100,3
      43,371	     3101,47	104,4	     3085,71	102,6
     43,3729	     3089,78	100,9	     3063,46	102,6
     43,3749	     3086,45	103,3	     3064,02	103,0
     43,3768	     3072,24	101,4	     3053,49	106,5
     43,3788	     3064,79	103,5	     3025,46	103,6
     43,3807	     3034,29	104,9	     3046,38	106,4
     43,3827	     3048,58	105,4	      3018,6	102,6
     43,3847	     3035,41	106,3	     3015,77	103,4
     43,3866	     3032,04	106,5	     3025,17	104,1
     43,3886	     3038,86	104,6	     3021,86	101,0
     43,3905	     3005,74	103,2	     3009,56	104,9
     43,3925	     3010,97	103,1	     2998,76	103,9
     43,3944	     2994,68	104,8	     2992,03	104,3
     43,3964	      2986,5	100,9	     2982,66	105,3
     43,3983	     2982,19	104,4	     2959,47	103,4
     43,4003	     3005,42	104,7	     2968,96	104,7
     43,4022	     2992,87	108,7	     2954,94	105,8
     43,4042	     2979,76	109,2	     2953,64	105,7
     43,4062	     2947,44	107,2	     2955,02	102,6
     43,4081	     2925,33	106,0	     2983,47	107,2
     43,4101	     2935,19	103,4	     2973,16	103,0
      43,412	     2935,87	104,0	     2937,84	103,0
      43,414	     2946,81	101,0	     2927,92	104,9
     43,4159	     2940,29	103,9	      2909,2	103,5
     43,4179	     2927,84	105,1	     2907,51	105,1
     43,4198	     2918,39	108,6	      2893,9	104,8
     43,4218	     2918,68	108,8	     2898,36	105,1
     43,4238	     2898,06	108,7	      2889,1	107,0
     43,4257	     2900,74	108,4	     2884,76	106,4
     43,4277	     2895,61	106,3	     2897,98	106,9
     43,4296	     2871,09	104,0	     2892,28	106,0
     43,4316	     2868,74	103,5	     2888,94	104,9
     43,4335	     2860,96	106,2	      2873,3	102,9
     43,4355	     2849,51	104,3	     2836,99	103,3
     43,4374	     2852,71	106,6	     2824,46	103,3
     43,4394	     2842,52	107,6	     2827,91	106,9
     43,4413	     2812,79	107,4	     2821,09	107,4
     43,4433	     2817,51	109,2	     2818,57	110,0
     43,4453	     2817,82	106,6	     2821,91	107,8
     43,4472	     2823,44	106,2	     2806,21	105,5
     43,4492	     2821,97	104,6	     2809,47	105,7
     43,4511	     2807,12	104,6	      2788,5	106,2
     43,4531	     2787,78	103,3	     2780,47	104,7
      43,455	     2799,17	105,8	     2777,61	103,5
      43,457	     2790,52	107,6	     2769,69	106,4
     43,4589	     2803,58	109,5	     2774,52	106,0
     43,4609	     2801,26	107,2	      2759,7	109,0
     43,4629	     2786,61	108,5	     2765,26	108,3
     43,4648	     2760,59	107,3	     2745,78	109,4
     43,4668	     2738,04	106,6	      2746,9	108,1
     43,4687	     2734,62	107,4	     2748,75	106,9
     43,4707	     2723,96	104,7	     2738,63	104,9
     43,4726	     2730,62	107,1	     2724,94	105,7
     43,4746	     2739,85	106,6	     2718,35	106,7
     43,4765	     2742,82	108,1	     2725,26	106,8
     43,4785	     2741,88	110,9	     2728,07	107,7
     43,4804	     2734,46	110,9	     2727,86	105,3
     43,4824	     2716,01	109,3	     2722,69	108,7
     43,4844	      2716,3	107,9	     2712,71	106,9
     43,4863	     2707,95	107,0	     2692,79	107,9
     43,4883	     2701,63	106,4	     2686,19	106,6
     43,4902	     2674,14	105,7	     2669,04	104,9
     43,4922	     2672,56	106,9	     2676,69	107,1
     43,4941	     2663,28	107,2	     2647,14	104,8
     43,4961	        2671	109,5	     2641,28	107,7
      43,498	     2674,67	110,7	     2652,05	107,7
        43,5	     2665,01	106,6	     2653,68	108,9

