X-Data [Hz]	Piezo (M - Filtered) [mV]	Phase [Deg]	Piezo (M - Filtered) [mV]	Phase [Deg]	
	002: [07-09-24 17:10]		003: [07-09-24 17:13]	
        41,5	     1350,97	-24,8	     1441,92	-26,8
      41,502	     1388,03	-27,1	     1419,45	-24,9
     41,5039	     1411,07	-28,0	     1427,35	-26,3
     41,5059	     1428,11	-28,4	     1420,59	-25,1
     41,5078	     1409,41	-27,9	     1424,88	-27,3
     41,5098	        1429	-24,7	     1417,13	-25,0
     41,5117	     1435,58	-28,3	     1422,47	-28,0
     41,5137	     1449,58	-27,4	     1435,28	-26,8
     41,5156	     1436,46	-28,4	     1459,68	-29,2
     41,5176	     1447,06	-27,4	     1433,29	-27,8
     41,5196	     1451,83	-25,3	     1419,22	-27,3
     41,5215	     1442,58	-27,8	     1438,72	-27,2
     41,5235	     1450,69	-25,8	     1427,28	-25,4
     41,5254	     1453,22	-28,9	     1442,09	-29,6
     41,5274	      1461,9	-22,5	     1467,51	-25,8
     41,5293	     1453,37	-24,4	     1466,75	-25,6
     41,5313	     1460,32	-25,8	     1423,11	-24,3
     41,5332	     1441,54	-26,2	     1436,15	-25,3
     41,5352	     1468,88	-24,6	     1461,63	-28,5
     41,5371	     1478,96	-22,4	     1456,36	-26,9
     41,5391	     1469,28	-27,5	     1462,07	-26,9
     41,5411	     1449,29	-26,9	     1469,25	-28,0
      41,543	      1464,2	-28,0	     1476,35	-26,9
      41,545	     1481,45	-29,8	     1457,24	-26,2
     41,5469	     1469,59	-24,7	     1452,76	-25,9
     41,5489	      1477,9	-26,6	     1469,32	-27,9
     41,5508	     1457,96	-26,7	     1473,48	-23,4
     41,5528	     1471,95	-25,3	     1471,48	-25,2
     41,5547	     1496,12	-24,7	     1448,65	-24,5
     41,5567	     1486,34	-25,0	     1451,59	-24,7
     41,5587	     1465,24	-27,0	     1489,83	-29,0
     41,5606	     1470,93	-24,4	     1488,11	-23,0
     41,5626	     1497,59	-29,2	     1469,97	-26,2
     41,5645	     1484,81	-26,4	     1464,95	-26,8
     41,5665	     1502,31	-25,4	     1498,22	-25,8
     41,5684	     1499,46	-27,0	     1519,27	-29,6
     41,5704	     1485,03	-26,4	     1500,73	-24,6
     41,5723	     1493,59	-25,9	     1485,66	-28,1
     41,5743	     1507,11	-22,0	     1503,68	-26,5
     41,5762	     1513,52	-25,5	     1497,95	-27,6
     41,5782	     1507,35	-24,4	     1493,78	-28,1
     41,5802	     1497,65	-24,9	     1496,59	-23,4
     41,5821	     1504,41	-26,2	     1519,41	-27,3
     41,5841	     1509,75	-24,8	     1504,45	-26,4
      41,586	     1512,92	-26,8	     1508,81	-26,5
      41,588	     1506,31	-25,1	     1505,76	-29,8
     41,5899	     1526,44	-27,7	     1523,12	-23,9
     41,5919	     1543,72	-29,6	     1511,11	-26,9
     41,5938	        1519	-24,9	     1508,72	-26,0
     41,5958	     1524,72	-26,9	     1527,65	-26,1
     41,5978	     1508,13	-23,3	     1537,25	-28,4
     41,5997	     1534,51	-23,6	      1506,7	-24,1
     41,6017	     1528,64	-28,9	     1495,87	-26,9
     41,6036	     1520,86	-24,3	     1518,77	-23,9
     41,6056	     1525,62	-26,5	     1527,75	-22,8
     41,6075	     1539,94	-21,5	     1526,52	-26,0
     41,6095	     1543,55	-22,5	     1524,84	-24,7
     41,6114	     1531,84	-26,0	     1523,11	-28,7
     41,6134	     1536,69	-24,3	     1542,73	-24,9
     41,6153	     1546,69	-26,7	     1547,93	-26,2
     41,6173	     1562,74	-25,2	     1544,26	-27,0
     41,6193	     1537,12	-26,1	      1549,9	-24,8
     41,6212	     1534,36	-27,1	     1546,91	-27,9
     41,6232	     1555,74	-25,3	      1532,8	-23,1
     41,6251	     1550,34	-26,9	     1549,11	-24,2
     41,6271	     1561,47	-25,8	     1541,53	-24,1
      41,629	     1568,49	-26,2	     1538,61	-23,7
      41,631	     1557,24	-25,7	      1567,6	-28,7
     41,6329	     1557,76	-23,6	        1558	-26,2
     41,6349	     1576,47	-24,1	     1557,61	-26,2
     41,6369	     1575,97	-24,5	     1554,06	-25,4
     41,6388	     1560,02	-23,2	     1570,56	-23,7
     41,6408	     1566,11	-25,1	      1581,7	-27,7
     41,6427	     1582,89	-25,6	     1571,83	-27,3
     41,6447	     1573,04	-28,7	     1556,28	-25,8
     41,6466	     1573,86	-22,7	     1556,38	-28,1
     41,6486	     1598,07	-25,0	     1577,19	-22,1
     41,6505	     1597,19	-26,7	     1587,19	-25,8
     41,6525	      1577,2	-25,9	     1577,54	-24,5
     41,6544	     1582,83	-26,4	     1585,27	-28,3
     41,6564	     1602,16	-24,1	     1582,04	-27,2
     41,6584	     1604,89	-25,5	     1576,75	-23,1
     41,6603	     1585,45	-23,9	     1580,15	-26,3
     41,6623	     1597,11	-22,4	     1597,44	-24,8
     41,6642	     1611,37	-27,4	     1598,99	-27,5
     41,6662	     1606,44	-24,9	     1613,41	-30,1
     41,6681	     1596,94	-25,9	     1585,58	-23,2
     41,6701	     1601,77	-24,3	     1587,53	-23,1
      41,672	     1592,67	-22,5	     1611,23	-23,8
      41,674	     1594,61	-23,7	     1600,09	-21,7
      41,676	     1629,67	-23,9	     1626,11	-28,5
     41,6779	      1629,9	-24,9	     1611,51	-24,5
     41,6799	     1594,19	-25,5	     1604,36	-26,0
     41,6818	     1606,83	-21,6	     1609,42	-24,2
     41,6838	     1639,16	-25,6	     1623,13	-26,6
     41,6857	     1630,16	-25,6	     1620,52	-26,3
     41,6877	     1620,89	-23,6	     1607,05	-23,8
     41,6896	      1630,8	-27,3	     1619,27	-27,1
     41,6916	     1639,65	-23,5	     1644,51	-23,8
     41,6936	     1645,97	-26,3	     1617,96	-21,8
     41,6955	     1638,44	-24,2	     1606,84	-24,5
     41,6975	     1640,23	-23,8	     1632,96	-23,3
     41,6994	     1647,27	-26,1	     1646,52	-23,3
     41,7014	     1630,49	-20,4	     1655,43	-25,4
     41,7033	     1659,47	-23,6	     1655,97	-22,3
     41,7053	     1635,48	-22,0	     1624,98	-25,3
     41,7072	      1643,2	-21,5	     1635,59	-25,3
     41,7092	     1658,59	-26,8	     1668,26	-24,7
     41,7111	     1655,81	-25,2	     1666,84	-24,7
     41,7131	     1676,73	-26,8	     1652,56	-23,5
     41,7151	     1680,88	-25,4	     1644,31	-24,3
      41,717	     1666,34	-22,1	     1659,05	-21,6
      41,719	     1665,25	-23,6	     1656,64	-22,2
     41,7209	     1675,23	-22,9	     1673,12	-25,9
     41,7229	     1675,66	-22,6	     1678,45	-23,2
     41,7248	     1674,63	-24,0	     1668,83	-27,0
     41,7268	     1663,52	-23,0	      1668,5	-25,1
     41,7287	     1659,98	-25,6	     1655,15	-23,2
     41,7307	     1666,63	-23,0	     1668,94	-25,9
     41,7327	     1685,62	-22,5	     1684,32	-24,9
     41,7346	      1707,4	-27,2	      1680,8	-25,4
     41,7366	      1686,1	-21,5	     1688,33	-26,9
     41,7385	     1690,45	-22,6	     1697,52	-23,9
     41,7405	     1692,63	-23,1	     1693,35	-24,3
     41,7424	     1692,26	-23,9	      1698,4	-22,2
     41,7444	     1687,33	-24,4	     1693,06	-21,8
     41,7463	     1714,09	-22,1	     1699,93	-25,7
     41,7483	     1717,73	-23,5	     1705,83	-24,3
     41,7502	     1690,68	-25,5	     1725,85	-24,8
     41,7522	     1687,92	-21,7	     1716,38	-25,0
     41,7542	     1704,84	-25,3	      1691,1	-22,4
     41,7561	     1714,73	-25,7	     1707,54	-24,8
     41,7581	     1727,87	-22,7	     1720,67	-24,6
       41,76	      1724,9	-25,8	     1735,07	-25,6
      41,762	     1718,37	-21,4	     1736,34	-26,2
     41,7639	     1729,36	-20,5	     1729,79	-23,6
     41,7659	     1726,43	-24,6	     1726,93	-24,2
     41,7678	     1723,72	-23,5	     1732,96	-22,4
     41,7698	     1732,41	-26,0	     1723,22	-21,1
     41,7718	     1731,47	-21,8	     1728,18	-26,7
     41,7737	     1728,24	-22,6	     1737,82	-25,2
     41,7757	     1733,46	-23,0	     1736,18	-24,0
     41,7776	      1745,8	-21,6	     1743,02	-26,3
     41,7796	     1737,75	-22,6	      1760,9	-21,0
     41,7815	     1755,61	-23,6	     1756,62	-22,5
     41,7835	     1766,44	-22,8	     1755,98	-23,1
     41,7854	     1771,93	-24,5	     1747,77	-22,3
     41,7874	     1751,26	-25,4	     1760,25	-27,1
     41,7893	     1749,33	-22,3	      1769,8	-25,0
     41,7913	     1768,04	-24,4	     1774,51	-24,2
     41,7933	     1779,13	-22,9	     1767,01	-22,8
     41,7952	     1791,98	-25,5	     1757,46	-23,7
     41,7972	      1793,6	-23,3	     1769,44	-26,4
     41,7991	     1778,73	-22,0	     1772,76	-25,8
     41,8011	     1772,66	-23,7	     1774,09	-22,8
      41,803	      1783,6	-23,2	     1791,59	-24,6
      41,805	     1783,46	-24,6	     1789,28	-20,3
     41,8069	      1771,3	-26,3	     1797,96	-22,2
     41,8089	     1792,23	-20,0	     1792,77	-24,0
     41,8109	     1810,81	-20,4	      1786,3	-22,7
     41,8128	      1819,1	-23,6	     1790,97	-21,9
     41,8148	     1792,67	-21,7	     1799,17	-24,3
     41,8167	     1792,51	-25,4	     1819,72	-23,2
     41,8187	     1802,24	-24,3	     1811,55	-24,4
     41,8206	     1803,21	-22,0	     1813,96	-22,5
     41,8226	     1832,99	-23,6	     1802,26	-22,7
     41,8245	     1819,15	-23,7	     1805,66	-25,9
     41,8265	     1816,75	-21,2	     1806,21	-20,8
     41,8284	     1836,25	-22,3	     1814,98	-24,3
     41,8304	     1831,19	-22,5	     1841,17	-20,7
     41,8324	      1837,8	-23,7	     1842,23	-19,0
     41,8343	     1838,46	-23,9	     1840,58	-26,1
     41,8363	     1824,91	-22,5	     1835,35	-24,4
     41,8382	     1813,68	-23,6	     1834,12	-24,8
     41,8402	     1813,33	-20,5	     1865,08	-24,4
     41,8421	     1827,22	-22,3	     1819,05	-19,8
     41,8441	     1846,34	-21,8	     1831,87	-22,2
      41,846	     1856,81	-19,8	     1844,31	-24,3
      41,848	     1873,46	-21,9	     1852,38	-20,3
       41,85	     1861,19	-23,8	     1865,27	-21,1
     41,8519	     1847,15	-20,8	     1863,86	-24,1
     41,8539	     1845,92	-24,6	     1857,28	-23,3
     41,8558	     1851,81	-21,1	     1864,67	-25,8
     41,8578	     1880,46	-22,2	     1870,09	-24,0
     41,8597	      1881,2	-24,3	     1864,38	-20,6
     41,8617	     1869,27	-21,4	     1863,41	-22,1
     41,8636	     1882,81	-22,8	     1875,81	-23,7
     41,8656	     1889,58	-20,4	     1876,51	-23,8
     41,8675	     1900,47	-19,8	     1878,55	-23,1
     41,8695	     1895,39	-22,9	     1893,11	-22,5
     41,8715	     1911,24	-21,9	     1890,06	-22,8
     41,8734	     1898,73	-21,4	     1905,32	-24,4
     41,8754	     1898,56	-22,6	     1903,49	-19,7
     41,8773	     1905,71	-20,0	     1903,53	-21,0
     41,8793	     1900,49	-19,2	     1912,83	-23,4
     41,8812	     1895,43	-25,3	     1922,71	-20,9
     41,8832	     1882,52	-23,5	      1919,9	-22,5
     41,8851	     1912,31	-21,3	     1918,37	-24,3
     41,8871	     1936,26	-19,4	     1922,12	-20,0
     41,8891	     1938,88	-20,5	     1917,66	-23,3
      41,891	     1926,31	-20,3	     1920,34	-21,0
      41,893	     1917,58	-22,5	     1932,58	-21,2
     41,8949	     1925,13	-19,1	      1926,3	-20,9
     41,8969	     1940,51	-24,2	     1927,46	-20,9
     41,8988	      1950,8	-23,7	     1915,39	-23,7
     41,9008	     1945,92	-21,5	     1935,34	-21,8
     41,9027	     1936,47	-22,9	     1934,98	-19,1
     41,9047	     1929,58	-18,4	     1943,21	-21,5
     41,9066	      1947,8	-18,4	     1949,94	-22,4
     41,9086	     1952,04	-23,8	     1962,99	-21,2
     41,9106	     1945,97	-22,3	     1971,05	-25,4
     41,9125	      1974,2	-22,8	     1981,07	-22,6
     41,9145	     1975,87	-24,1	      1954,7	-20,6
     41,9164	     1980,82	-18,8	     1974,97	-22,7
     41,9184	     1986,78	-20,8	     1985,39	-20,3
     41,9203	     1976,61	-20,3	     1988,79	-19,2
     41,9223	      1972,4	-18,9	     1999,74	-23,6
     41,9242	     1991,06	-24,9	     2005,99	-20,4
     41,9262	     1993,08	-23,1	     1994,68	-22,9
     41,9282	     2007,77	-20,5	     1983,35	-22,9
     41,9301	     1990,08	-21,1	     1972,62	-20,7
     41,9321	      2019,6	-18,8	     2005,47	-21,9
      41,934	     2036,18	-18,2	     2038,46	-19,1
      41,936	     2022,19	-20,6	     2033,08	-18,7
     41,9379	     2017,21	-20,5	     2015,15	-21,2
     41,9399	     2008,23	-21,1	     2039,26	-21,0
     41,9418	     2028,15	-24,9	     2023,24	-19,4
     41,9438	     2010,04	-22,4	      2017,8	-22,7
     41,9457	     2023,13	-19,7	     2021,29	-22,3
     41,9477	     2038,58	-20,3	     2021,01	-21,0
     41,9497	      2039,9	-18,9	     2014,67	-22,5
     41,9516	     2039,39	-19,6	     2033,63	-21,4
     41,9536	     2039,18	-21,6	     2057,76	-21,4
     41,9555	     2051,93	-20,0	     2077,98	-23,6
     41,9575	     2040,76	-18,7	     2073,77	-17,1
     41,9594	     2042,67	-21,8	     2057,83	-19,1
     41,9614	     2059,31	-17,2	     2057,58	-21,5
     41,9633	     2067,89	-20,0	     2041,45	-19,2
     41,9653	     2057,62	-18,9	     2051,04	-20,1
     41,9673	     2078,07	-17,2	     2070,47	-21,5
     41,9692	     2120,03	-24,0	     2079,74	-19,7
     41,9712	      2100,8	-22,3	     2086,16	-20,0
     41,9731	     2078,74	-21,8	      2103,6	-21,6
     41,9751	      2094,8	-20,8	     2108,33	-20,4
      41,977	      2085,7	-20,2	     2103,73	-20,2
      41,979	     2092,23	-17,2	     2081,46	-21,4
     41,9809	     2103,77	-18,7	     2092,74	-17,7
     41,9829	     2107,63	-19,1	     2098,89	-19,7
     41,9848	      2116,7	-19,4	     2140,03	-20,6
     41,9868	     2121,12	-21,6	     2126,44	-18,0
     41,9888	     2114,47	-20,2	     2122,38	-22,4
     41,9907	     2117,88	-18,3	     2137,01	-21,9
     41,9927	     2144,79	-19,8	     2109,61	-19,6
     41,9946	     2138,02	-20,9	     2112,26	-19,9
     41,9966	     2121,68	-19,3	     2129,58	-19,8
     41,9985	     2138,82	-17,8	     2137,33	-17,0
     42,0005	     2149,96	-19,7	      2152,6	-22,5
     42,0024	     2141,16	-18,4	     2146,16	-19,9
     42,0044	     2143,11	-21,2	     2131,53	-19,9
     42,0064	     2147,53	-21,7	     2146,27	-21,7
     42,0083	     2162,16	-19,5	     2130,01	-18,4
     42,0103	     2170,79	-19,9	     2145,24	-18,6
     42,0122	     2161,35	-19,3	     2176,39	-20,8
     42,0142	     2167,72	-17,5	      2171,2	-18,4
     42,0161	     2174,96	-21,2	     2185,21	-18,6
     42,0181	     2153,08	-19,1	     2192,38	-21,6
       42,02	     2192,03	-19,3	     2207,32	-19,8
      42,022	     2201,92	-21,8	     2189,22	-18,7
     42,0239	      2196,3	-18,7	     2196,47	-21,0
     42,0259	     2196,68	-17,2	     2204,19	-17,4
     42,0279	     2188,45	-19,5	      2221,5	-17,6
     42,0298	     2200,66	-17,8	     2219,14	-20,7
     42,0318	     2209,52	-19,8	     2213,47	-21,1
     42,0337	     2230,92	-21,5	     2220,51	-17,9
     42,0357	     2236,63	-18,0	      2232,9	-21,8
     42,0376	     2230,49	-18,9	     2238,98	-20,8
     42,0396	     2228,83	-19,7	     2230,18	-20,2
     42,0415	     2246,67	-16,6	     2244,54	-20,1
     42,0435	     2239,95	-19,1	     2236,85	-16,0
     42,0455	     2250,03	-19,2	     2235,24	-18,4
     42,0474	     2270,21	-16,4	     2269,77	-19,8
     42,0494	     2265,95	-20,7	     2270,93	-17,5
     42,0513	     2257,84	-21,0	     2275,43	-16,0
     42,0533	     2250,69	-16,4	     2289,99	-20,4
     42,0552	      2267,3	-17,4	     2280,26	-19,9
     42,0572	     2263,11	-18,8	     2259,82	-16,3
     42,0591	     2272,82	-17,1	     2270,62	-23,0
     42,0611	     2286,67	-14,6	      2287,2	-21,0
      42,063	     2303,12	-18,8	     2298,57	-18,2
      42,065	     2290,48	-18,4	     2302,07	-18,5
      42,067	     2305,35	-19,0	     2309,35	-20,5
     42,0689	     2308,34	-21,2	     2310,73	-15,5
     42,0709	     2304,94	-16,0	     2303,42	-16,3
     42,0728	     2324,51	-16,1	     2323,31	-18,9
     42,0748	      2311,2	-19,3	     2318,05	-16,4
     42,0767	     2313,49	-17,9	     2324,37	-20,7
     42,0787	     2315,51	-15,8	     2342,51	-20,0
     42,0806	     2333,17	-18,6	     2345,86	-15,7
     42,0826	     2329,86	-16,1	     2354,77	-16,8
     42,0846	      2348,2	-16,3	     2352,35	-17,0
     42,0865	      2337,1	-20,2	     2357,14	-17,0
     42,0885	     2328,18	-18,6	     2370,07	-16,8
     42,0904	     2337,96	-17,2	     2363,14	-19,9
     42,0924	     2359,84	-18,3	     2375,92	-18,0
     42,0943	     2369,83	-12,7	     2383,39	-20,4
     42,0963	      2388,6	-12,8	      2408,9	-21,1
     42,0982	     2384,69	-18,4	     2419,18	-16,3
     42,1002	     2389,64	-16,6	     2410,34	-16,7
     42,1021	     2381,07	-15,8	     2401,85	-19,3
     42,1041	     2406,38	-20,5	      2398,6	-16,7
     42,1061	     2392,31	-18,8	     2402,36	-16,3
      42,108	     2407,94	-15,4	     2390,19	-18,8
       42,11	     2413,21	-16,6	     2416,08	-16,4
     42,1119	     2403,33	-18,5	     2432,72	-16,0
     42,1139	     2397,48	-15,6	     2459,13	-19,1
     42,1158	      2420,1	-16,1	     2458,71	-18,5
     42,1178	     2437,27	-17,0	     2456,91	-15,7
     42,1197	     2432,23	-15,0	     2452,55	-17,1
     42,1217	     2414,24	-16,2	     2460,18	-15,7
     42,1237	     2439,47	-18,0	     2463,96	-14,5
     42,1256	     2450,53	-17,8	     2490,83	-18,6
     42,1276	     2469,85	-17,9	      2483,2	-18,4
     42,1295	     2475,35	-18,3	      2478,4	-16,2
     42,1315	     2468,49	-13,6	     2477,92	-17,4
     42,1334	     2472,14	-12,2	     2488,91	-17,7
     42,1354	     2478,17	-18,5	     2503,46	-15,5
     42,1373	     2475,57	-14,2	     2502,15	-18,7
     42,1393	     2490,09	-16,3	      2503,8	-17,7
     42,1413	     2483,18	-17,0	     2501,24	-14,4
     42,1432	     2508,22	-15,3	     2502,96	-14,8
     42,1452	     2509,01	-14,7	     2525,26	-18,0
     42,1471	     2513,18	-17,0	     2534,12	-15,9
     42,1491	     2526,14	-14,7	     2547,08	-14,5
      42,151	      2530,6	-15,0	     2565,48	-17,2
      42,153	     2534,84	-16,9	     2576,62	-15,4
     42,1549	     2542,04	-15,4	     2574,14	-15,1
     42,1569	     2549,23	-14,5	     2559,09	-16,8
     42,1588	     2551,01	-14,8	     2565,38	-15,9
     42,1608	     2572,67	-17,1	     2593,25	-14,8
     42,1628	     2562,97	-15,7	      2589,2	-16,7
     42,1647	     2564,71	-12,5	     2585,26	-17,7
     42,1667	     2590,39	-17,2	     2600,09	-13,2
     42,1686	     2580,75	-16,9	     2588,39	-13,2
     42,1706	     2587,55	-12,2	     2598,05	-15,6
     42,1725	     2603,97	-16,5	     2621,18	-14,7
     42,1745	     2602,33	-12,9	     2646,48	-16,6
     42,1764	     2618,91	-11,9	     2650,32	-15,7
     42,1784	      2617,5	-15,4	     2635,99	-14,4
     42,1804	      2624,4	-15,0	     2627,35	-15,7
     42,1823	        2637	-13,2	     2632,75	-16,4
     42,1843	     2651,69	-13,4	     2647,79	-16,1
     42,1862	     2647,21	-15,9	     2656,33	-13,3
     42,1882	     2656,18	-15,4	     2659,26	-16,1
     42,1901	      2661,4	-16,5	     2666,78	-15,7
     42,1921	     2653,71	-16,6	     2651,11	-12,4
      42,194	     2643,29	-11,4	     2671,24	-13,4
      42,196	     2668,82	-14,7	     2705,64	-15,1
     42,1979	     2679,24	-15,3	     2705,03	-14,4
     42,1999	     2685,77	-12,7	     2707,99	-16,2
     42,2019	     2680,75	-13,1	     2716,75	-14,6
     42,2038	     2685,17	-15,2	     2727,88	-15,7
     42,2058	     2678,49	-14,4	     2722,45	-14,3
     42,2077	     2700,73	-11,7	     2733,03	-15,3
     42,2097	     2707,95	-15,6	     2736,67	-13,4
     42,2116	     2716,78	-15,6	     2756,22	-13,6
     42,2136	     2725,48	-10,4	     2768,43	-13,7
     42,2155	     2720,91	-11,8	     2756,33	-14,1
     42,2175	     2734,09	-14,2	     2782,11	-11,8
     42,2195	     2746,37	-14,3	      2775,5	-11,2
     42,2214	     2770,48	-11,7	     2799,38	-17,8
     42,2234	     2770,48	-12,2	     2818,96	-14,2
     42,2253	     2769,84	-13,2	     2799,59	-13,8
     42,2273	     2769,43	-11,9	     2795,43	-14,5
     42,2292	     2792,75	-15,6	     2786,04	-13,5
     42,2312	     2812,73	-14,6	     2796,77	-13,0
     42,2331	     2842,86	-10,9	     2812,06	-13,6
     42,2351	     2846,62	-12,7	     2825,82	-14,5
      42,237	      2813,8	-12,5	     2836,64	-11,6
      42,239	     2818,65	-11,3	     2847,24	-10,4
      42,241	     2843,94	-12,1	     2857,36	-12,7
     42,2429	     2846,64	-13,1	      2859,7	-10,9
     42,2449	     2847,57	-11,9	     2867,51	-10,6
     42,2468	     2848,75	-10,0	     2890,64	-14,4
     42,2488	     2848,61	-13,3	     2904,94	-15,4
     42,2507	     2861,56	-15,4	     2925,26	-11,9
     42,2527	     2852,46	-11,9	     2929,22	-11,0
     42,2546	     2870,68	-12,7	     2937,31	-14,6
     42,2566	     2898,79	-10,2	     2937,87	-12,8
     42,2586	     2915,35	-10,9	     2922,21	-11,7
     42,2605	     2921,28	-11,4	     2925,22	-12,4
     42,2625	     2925,96	-12,0	     2927,09	-12,1
     42,2644	      2936,1	-7,2	     2937,43	-10,2
     42,2664	     2936,31	-9,4	     2961,74	-13,4
     42,2683	     2929,25	-13,2	      2965,5	-12,2
     42,2703	     2908,94	-12,7	     3008,71	-9,5
     42,2722	     2931,27	-11,6	     3010,97	-9,8
     42,2742	     2946,68	-12,2	     3022,13	-12,9
     42,2761	     2971,46	-11,3	     3024,24	-12,6
     42,2781	     2981,87	-10,6	     3004,73	-11,7
     42,2801	     2982,23	-9,4	      3015,3	-12,9
      42,282	      3003,7	-12,2	     3046,22	-12,8
      42,284	     2995,03	-12,3	     3053,81	-12,6
     42,2859	      3007,3	-7,5	     3049,25	-12,0
     42,2879	      3016,5	-9,2	     3060,15	-13,4
     42,2898	     3032,68	-11,0	     3076,68	-13,4
     42,2918	     3037,42	-8,6	     3083,17	-8,4
     42,2937	     3048,16	-8,0	     3074,95	-10,2
     42,2957	     3060,86	-9,7	     3075,42	-11,1
     42,2977	     3066,58	-9,6	     3080,34	-8,2
     42,2996	     3067,63	-7,6	     3091,25	-8,2
     42,3016	     3074,14	-12,5	     3129,94	-12,0
     42,3035	     3082,14	-14,6	     3130,68	-8,5
     42,3055	     3091,18	-8,7	     3131,44	-10,3
     42,3074	     3100,03	-9,9	     3135,76	-11,4
     42,3094	      3105,4	-9,2	     3140,78	-11,7
     42,3113	     3123,63	-7,6	     3168,85	-9,7
     42,3133	     3124,31	-8,3	     3175,21	-9,5
     42,3153	     3144,58	-9,0	     3201,27	-12,7
     42,3172	     3143,88	-9,9	     3221,64	-10,7
     42,3192	     3154,09	-9,1	     3197,99	-7,6
     42,3211	     3167,02	-8,4	     3199,77	-8,8
     42,3231	     3153,31	-9,9	     3203,78	-10,5
      42,325	     3175,91	-7,6	     3216,76	-10,1
      42,327	     3195,01	-9,1	     3214,43	-7,5
     42,3289	     3209,06	-10,6	     3229,64	-9,1
     42,3309	     3212,31	-8,0	      3233,9	-8,9
     42,3328	     3217,24	-7,6	      3230,6	-5,2
     42,3348	     3229,83	-9,6	     3243,55	-9,6
     42,3368	     3236,16	-10,4	      3263,3	-11,5
     42,3387	     3255,36	-6,8	     3304,81	-7,6
     42,3407	     3275,12	-6,8	     3305,67	-7,2
     42,3426	     3277,01	-8,4	     3321,26	-9,7
     42,3446	     3280,99	-5,4	     3316,29	-9,8
     42,3465	        3285	-6,6	     3328,63	-7,8
     42,3485	     3287,84	-7,4	     3343,96	-7,5
     42,3504	     3289,08	-7,6	     3360,67	-11,3
     42,3524	     3284,59	-7,0	     3376,32	-10,3
     42,3544	     3302,69	-9,0	     3371,08	-6,0
     42,3563	     3315,34	-8,8	     3380,19	-8,0
     42,3583	     3323,76	-8,8	     3394,97	-6,2
     42,3602	     3342,45	-5,6	     3404,17	-6,3
     42,3622	     3341,49	-8,5	     3410,77	-7,3
     42,3641	     3378,11	-8,5	     3410,22	-7,8
     42,3661	     3396,07	-3,7	     3444,42	-4,9
      42,368	     3400,73	-6,4	     3449,28	-4,9
       42,37	     3387,83	-7,4	     3467,96	-8,6
     42,3719	     3397,72	-5,5	     3482,87	-6,8
     42,3739	     3423,18	-2,3	     3489,85	-6,4
     42,3759	     3435,02	-6,6	     3502,63	-5,6
     42,3778	      3445,5	-7,0	     3510,38	-6,1
     42,3798	     3473,92	-4,0	     3527,06	-6,2
     42,3817	      3480,4	-4,1	     3527,69	-5,1
     42,3837	     3487,67	-8,1	     3520,98	-5,5
     42,3856	     3487,96	-6,9	        3529	-7,6
     42,3876	     3502,86	-5,7	     3539,11	-5,5
     42,3895	     3508,72	-6,3	     3547,53	-4,1
     42,3915	     3530,36	-7,1	     3567,64	-5,8
     42,3935	     3533,27	-3,4	     3580,22	-6,8
     42,3954	     3543,26	-4,4	     3577,57	-2,6
     42,3974	     3556,01	-4,9	     3591,57	-2,4
     42,3993	     3564,35	-5,4	     3612,84	-5,2
     42,4013	     3578,29	-2,9	     3626,26	-4,5
     42,4032	     3583,44	-2,2	     3660,35	-1,3
     42,4052	     3579,76	-4,4	     3665,66	-2,2
     42,4071	     3598,43	-4,0	     3673,79	-4,1
     42,4091	     3604,24	-1,0	     3695,97	-3,3
      42,411	      3615,8	-1,9	     3703,66	-1,6
      42,413	     3629,08	-4,6	        3728	-4,9
      42,415	      3653,4	-3,0	     3735,23	-4,7
     42,4169	     3659,81	-3,8	     3736,09	-4,7
     42,4189	     3668,69	-4,4	     3746,61	-1,6
     42,4208	     3682,65	-2,5	     3758,26	-5,8
     42,4228	     3684,96	-3,8	        3764	-4,5
     42,4247	     3704,84	-4,4	     3779,39	-1,3
     42,4267	     3723,56	-5,1	     3794,78	-3,1
     42,4286	     3737,19	-0,6	     3799,89	-1,3
     42,4306	     3756,44	-2,1	     3837,99	-3,1
     42,4326	     3764,76	-1,3	     3845,03	-2,1
     42,4345	     3776,19	-2,6	     3843,77	-1,3
     42,4365	     3775,31	-3,1	     3851,92	-3,5
     42,4384	     3798,86	 0,6	     3877,62	-0,1
     42,4404	     3828,65	 1,1	     3900,23	-1,1
     42,4423	     3822,66	-0,8	     3905,36	-1,0
     42,4443	     3841,52	 0,6	     3909,68	-2,5
     42,4462	     3856,09	-1,0	     3924,64	 1,2
     42,4482	     3865,41	-1,3	     3916,47	 3,1
     42,4501	     3862,58	-2,1	     3950,67	-3,5
     42,4521	      3890,2	 0,6	     3966,97	-2,0
     42,4541	     3898,37	-0,9	     3984,07	-0,3
      42,456	     3917,62	-0,5	     4012,19	-0,5
      42,458	     3925,43	 0,0	     4022,43	 1,7
     42,4599	      3931,8	 0,7	      4039,5	-0,9
     42,4619	     3939,68	-1,1	     4037,02	-0,6
     42,4638	     3946,92	-2,4	     4064,48	 0,3
     42,4658	      3960,3	 3,3	     4072,49	-1,5
     42,4677	     3974,94	 1,4	     4079,93	-0,3
     42,4697	      3998,9	 0,3	     4101,19	 1,6
     42,4717	     4014,76	 0,6	     4102,79	-2,0
     42,4736	     4021,91	 4,2	     4127,88	-1,4
     42,4756	     4045,44	 3,2	        4144	 1,2
     42,4775	     4056,61	 1,3	     4149,76	 2,9
     42,4795	      4060,5	 2,0	     4153,52	 1,3
     42,4814	     4053,72	 3,6	     4148,71	-0,5
     42,4834	     4079,96	 1,9	     4172,89	 3,5
     42,4853	     4091,82	 1,9	     4198,33	 2,9
     42,4873	     4104,21	 4,5	      4220,8	 3,2
     42,4892	     4119,49	 5,0	     4234,96	 1,8
     42,4912	     4123,09	 2,3	     4251,28	 5,7
     42,4932	     4137,61	 2,9	     4246,12	 5,3
     42,4951	     4150,15	 3,7	     4268,56	 2,4
     42,4971	     4160,96	 5,3	     4282,66	 2,7
      42,499	     4187,69	 1,6	     4299,86	 4,6
      42,501	     4202,06	 1,2	     4317,89	 7,0
     42,5029	      4238,2	 6,5	     4333,31	 5,2
     42,5049	     4255,67	 5,6	     4373,41	 4,6
     42,5068	     4270,36	 2,0	     4369,93	 5,7
     42,5088	        4268	 2,0	     4372,42	 6,2
     42,5108	     4278,57	 2,1	     4384,67	 6,1
     42,5127	     4302,39	 6,8	     4401,07	 3,5
     42,5147	     4317,79	 4,3	     4415,73	 5,3
     42,5166	     4337,93	 7,0	     4437,29	 5,6
     42,5186	     4350,53	 5,3	     4457,31	 4,6
     42,5205	     4356,83	 6,6	     4474,37	 5,4
     42,5225	     4375,03	 6,2	     4511,61	 6,2
     42,5244	     4387,48	 7,7	     4518,95	 7,5
     42,5264	     4406,84	 8,6	     4511,55	 5,6
     42,5283	     4431,26	 8,6	     4535,44	 3,8
     42,5303	     4440,59	 6,3	      4531,2	 7,4
     42,5323	      4461,4	 6,5	     4566,44	 6,8
     42,5342	     4459,24	10,4	     4579,54	 6,2
     42,5362	     4473,79	 8,8	     4595,59	 6,5
     42,5381	     4484,05	 7,6	      4614,7	 8,6
     42,5401	     4486,05	 7,9	     4616,16	 8,6
      42,542	     4491,59	 9,6	     4622,84	 7,5
      42,544	     4508,63	11,7	     4648,52	 5,4
     42,5459	     4533,91	 7,3	     4668,08	 8,6
     42,5479	     4537,02	10,3	     4698,82	10,5
     42,5499	     4557,64	 9,8	     4709,51	 7,6
     42,5518	     4560,36	10,1	      4726,7	 6,8
     42,5538	     4571,25	 5,3	     4760,33	11,3
     42,5557	     4574,23	 7,1	     4777,63	11,6
     42,5577	     4602,05	10,8	      4777,9	10,7
     42,5596	      4621,7	12,2	     4792,63	 9,0
     42,5616	     4660,83	 8,2	     4822,75	12,4
     42,5635	     4676,31	 9,2	     4822,12	14,4
     42,5655	     4710,59	11,5	     4814,07	11,9
     42,5674	     4715,27	11,2	     4827,64	11,2
     42,5694	     4735,92	10,3	     4839,55	11,3
     42,5714	     4738,37	 9,1	     4868,83	13,8
     42,5733	     4746,44	13,4	     4889,25	11,9
     42,5753	     4756,42	13,1	     4886,34	11,4
     42,5772	     4766,48	11,7	     4914,86	13,0
     42,5792	     4778,57	10,0	     4923,58	17,0
     42,5811	     4792,09	13,8	     4938,18	12,3
     42,5831	     4813,38	16,7	     4960,11	15,6
      42,585	     4838,89	13,2	     4976,42	14,6
      42,587	     4858,52	13,6	     4971,08	18,1
      42,589	     4871,22	15,6	      4991,8	16,4
     42,5909	     4902,58	16,6	     5008,82	13,6
     42,5929	     4897,18	15,8	     5025,76	12,6
     42,5948	     4915,87	14,3	     5058,74	15,9
     42,5968	     4940,16	16,5	     5066,23	16,9
     42,5987	     4960,56	17,2	     5063,02	14,0
     42,6007	     4964,02	17,0	     5089,92	15,5
     42,6026	     4974,65	15,1	      5108,8	15,9
     42,6046	     4970,27	15,9	     5118,14	19,3
     42,6065	     4993,98	19,8	     5154,71	15,4
     42,6085	     5010,18	20,9	     5164,75	15,2
     42,6105	     5011,15	16,0	     5182,13	16,6
     42,6124	     5019,43	16,6	     5197,92	19,8
     42,6144	      5055,6	20,3	     5202,35	16,2
     42,6163	     5070,22	20,3	     5210,08	15,6
     42,6183	     5099,15	16,3	     5223,57	16,1
     42,6202	      5118,5	18,8	     5248,94	19,4
     42,6222	     5141,31	19,7	     5270,09	18,2
     42,6241	     5160,66	20,9	     5279,73	19,1
     42,6261	     5172,22	17,3	     5309,71	17,5
     42,6281	     5160,71	18,9	     5326,21	18,3
       42,63	     5191,14	19,7	      5331,6	19,3
      42,632	     5195,51	21,6	     5331,34	18,0
     42,6339	     5211,93	16,8	     5358,26	20,3
     42,6359	     5232,45	20,1	      5378,4	20,4
     42,6378	     5239,24	20,7	     5382,95	23,5
     42,6398	     5260,41	20,9	     5402,21	21,4
     42,6417	     5279,45	19,0	     5416,61	19,8
     42,6437	     5292,18	19,8	     5429,78	22,1
     42,6456	      5310,8	21,6	        5424	24,4
     42,6476	     5321,98	22,4	     5434,54	22,7
     42,6496	     5332,35	20,7	     5451,53	23,2
     42,6515	     5358,54	20,8	     5481,54	21,1
     42,6535	     5356,77	21,0	     5493,61	22,9
     42,6554	     5379,02	25,4	     5490,07	23,7
     42,6574	     5399,27	23,3	     5503,84	23,4
     42,6593	     5401,02	22,2	     5528,91	23,5
     42,6613	     5419,36	22,9	     5547,94	25,5
     42,6632	     5429,26	26,2	     5551,95	26,8
     42,6652	     5444,83	25,9	      5571,1	24,6
     42,6672	     5460,85	23,9	     5587,16	26,0
     42,6691	     5477,15	23,8	     5604,07	24,3
     42,6711	     5474,23	26,6	     5598,26	28,2
      42,673	     5487,95	27,2	     5602,19	27,7
      42,675	     5510,36	24,8	     5618,92	27,9
     42,6769	     5530,55	24,4	        5635	27,4
     42,6789	      5541,3	29,2	     5643,65	26,2
     42,6808	     5555,02	28,4	     5667,41	29,9
     42,6828	     5560,06	30,0	     5665,92	28,0
     42,6847	     5571,64	27,2	     5666,82	28,8
     42,6867	      5578,8	26,0	     5678,08	33,3
     42,6887	     5587,52	30,8	     5702,64	31,4
     42,6906	     5604,66	30,1	     5705,76	30,1
     42,6926	     5613,33	28,0	      5711,2	29,8
     42,6945	     5623,95	28,6	     5735,57	31,7
     42,6965	     5632,86	33,1	     5748,25	30,5
     42,6984	      5655,3	32,5	     5742,42	32,4
     42,7004	     5658,53	32,1	     5749,69	31,4
     42,7023	     5671,57	28,1	      5766,3	32,5
     42,7043	      5683,6	32,7	     5793,07	33,6
     42,7063	     5701,15	33,2	     5789,75	32,4
     42,7082	     5714,52	33,8	     5783,19	34,0
     42,7102	     5717,91	31,5	     5808,42	33,0
     42,7121	      5719,6	31,5	     5807,36	34,6
     42,7141	     5730,75	36,0	     5815,79	32,1
      42,716	     5741,93	33,7	     5841,66	37,2
      42,718	     5765,15	35,9	     5833,88	33,0
     42,7199	     5789,15	33,1	     5830,91	34,4
     42,7219	     5773,89	36,0	     5842,13	32,9
     42,7239	      5773,7	34,8	     5856,45	36,5
     42,7258	     5784,76	36,9	     5853,23	38,0
     42,7278	     5790,05	35,9	     5848,06	33,0
     42,7297	     5791,86	36,6	     5857,87	34,4
     42,7317	     5800,39	37,4	     5870,19	39,1
     42,7336	     5815,16	40,4	        5879	38,5
     42,7356	     5822,46	39,1	     5886,42	37,9
     42,7375	     5821,19	37,7	     5892,29	35,8
     42,7395	     5830,48	35,9	     5898,98	40,8
     42,7414	     5850,97	42,3	     5905,27	39,8
     42,7434	      5862,8	40,0	     5897,67	40,5
     42,7454	     5884,12	40,0	     5915,84	37,6
     42,7473	     5866,96	38,6	     5922,68	41,2
     42,7493	     5874,09	38,1	     5943,74	42,6
     42,7512	        5886	41,9	     5946,76	41,3
     42,7532	     5893,74	41,6	     5936,83	38,5
     42,7551	     5891,81	39,8	     5952,68	39,9
     42,7571	     5893,72	39,6	     5949,67	41,9
      42,759	     5897,09	44,2	     5949,41	41,9
      42,761	     5911,13	42,5	     5925,51	42,1
      42,763	     5916,87	43,1	     5950,89	42,4
     42,7649	     5932,15	41,0	     5953,03	41,7
     42,7669	     5928,16	40,2	     5965,83	40,8
     42,7688	     5940,98	41,5	     5968,82	46,0
     42,7708	     5944,26	45,3	     5959,91	43,4
     42,7727	     5932,06	43,2	     5957,51	41,1
     42,7747	      5942,5	41,5	     5977,37	41,5
     42,7766	     5943,25	43,8	     5998,22	45,9
     42,7786	     5931,88	46,7	     6005,13	45,3
     42,7805	      5933,8	45,4	     5987,86	44,8
     42,7825	     5945,13	45,7	     5989,94	43,4
     42,7845	     5951,74	44,5	      5983,5	44,7
     42,7864	     5947,03	48,3	     5975,75	45,2
     42,7884	     5964,74	45,6	     5970,96	46,0
     42,7903	     5975,53	47,9	     5994,75	47,6
     42,7923	      5969,4	46,1	     5996,89	46,2
     42,7942	     5962,07	46,2	     5997,09	46,8
     42,7962	     5965,21	46,8	      5988,7	48,1
     42,7981	      5970,5	48,9	     5993,56	49,1
     42,8001	     5978,79	48,4	     5987,11	49,8
     42,8021	     5961,79	48,7	     5992,07	45,7
      42,804	     5958,72	47,6	     5978,37	47,1
      42,806	     5978,95	51,3	     5987,06	51,2
     42,8079	     5982,29	51,0	     5967,74	50,7
     42,8099	     5979,54	50,0	     5960,36	48,1
     42,8118	     5969,29	47,4	     5948,82	49,9
     42,8138	     5971,03	49,0	      5961,4	51,3
     42,8157	     5968,75	49,6	      5952,9	52,7
     42,8177	     5967,89	52,5	     5948,64	51,0
     42,8196	     5971,22	50,4	     5940,78	52,4
     42,8216	     5978,66	51,4	     5955,22	50,3
     42,8236	     5977,28	52,8	     5942,33	52,8
     42,8255	     5969,21	51,5	     5927,24	54,1
     42,8275	     5969,45	53,8	     5933,48	56,3
     42,8294	     5966,38	55,3	     5929,37	53,7
     42,8314	      5960,1	51,7	     5930,43	53,3
     42,8333	     5953,22	54,0	     5912,87	55,5
     42,8353	     5958,94	54,1	     5898,84	57,0
     42,8372	     5951,77	56,1	     5903,06	55,8
     42,8392	     5938,71	54,0	     5908,43	57,1
     42,8412	     5931,38	55,8	     5923,38	56,8
     42,8431	     5907,23	55,4	     5909,56	57,5
     42,8451	     5907,03	57,0	     5879,51	57,9
      42,847	     5927,98	58,2	     5875,33	59,4
      42,849	     5932,05	55,8	     5849,49	58,3
     42,8509	     5905,12	56,3	     5857,78	55,7
     42,8529	      5908,3	56,2	     5874,17	58,3
     42,8548	     5892,87	60,4	     5880,24	60,6
     42,8568	     5891,05	59,5	     5864,69	58,6
     42,8587	     5898,77	59,5	     5849,63	57,8
     42,8607	     5889,26	58,0	     5849,58	58,1
     42,8627	     5883,95	58,7	     5849,43	61,1
     42,8646	      5868,3	61,3	     5837,45	59,4
     42,8666	     5852,84	62,3	     5839,96	61,7
     42,8685	     5865,02	63,9	     5823,97	59,2
     42,8705	     5853,01	60,3	     5818,58	58,3
     42,8724	      5843,3	59,7	     5810,73	57,8
     42,8744	     5851,77	63,3	     5801,79	61,0
     42,8763	     5852,48	63,1	     5795,98	62,4
     42,8783	     5830,96	61,0	     5789,72	61,6
     42,8803	        5830	61,5	     5776,11	60,2
     42,8822	     5817,56	63,0	     5789,54	61,9
     42,8842	     5810,31	64,2	     5784,02	60,8
     42,8861	     5807,23	66,7	     5762,15	62,7
     42,8881	     5802,76	65,1	     5753,53	63,6
       42,89	     5785,25	62,9	     5735,11	61,5
      42,892	     5790,15	62,7	     5731,72	62,2
     42,8939	     5780,26	66,2	     5730,27	64,2
     42,8959	     5776,62	65,8	     5724,34	65,5
     42,8979	     5762,26	65,5	     5727,59	63,9
     42,8998	     5768,92	62,8	     5713,79	66,2
     42,9018	     5777,24	63,7	     5689,26	66,0
     42,9037	     5759,81	66,4	      5675,7	66,3
     42,9057	     5753,19	66,9	     5668,99	67,1
     42,9076	      5739,4	66,4	     5659,81	66,7
     42,9096	     5703,15	64,8	     5643,39	67,8
     42,9115	     5706,52	63,7	     5620,51	65,8
     42,9135	     5699,91	63,9	     5617,63	67,7
     42,9154	     5695,87	67,9	     5613,52	69,8
     42,9174	     5686,26	69,5	     5610,99	70,3
     42,9194	     5687,04	65,7	     5595,48	67,5
     42,9213	     5680,99	67,0	     5583,92	66,2
     42,9233	     5660,06	67,2	     5573,25	67,3
     42,9252	     5650,39	68,8	     5588,59	68,5
     42,9272	     5640,29	70,8	     5583,83	71,2
     42,9291	     5613,64	67,1	     5577,19	69,5
     42,9311	      5611,9	70,0	     5547,54	69,0
      42,933	     5599,67	68,6	     5561,15	66,3
      42,935	     5602,22	69,9	     5551,66	73,1
      42,937	     5587,75	73,5	     5546,59	70,9
     42,9389	     5578,26	72,0	     5518,47	69,9
     42,9409	     5555,34	72,2	     5521,43	70,6
     42,9428	     5556,84	71,8	      5526,7	69,2
     42,9448	     5539,23	70,8	     5521,86	70,2
     42,9467	     5552,29	74,8	     5507,34	70,5
     42,9487	     5548,78	73,8	     5486,12	72,8
     42,9506	     5522,02	71,6	     5461,75	73,4
     42,9526	     5516,57	71,8	     5442,24	71,1
     42,9545	     5491,55	73,5	     5434,49	72,8
     42,9565	     5478,74	72,3	     5436,16	72,4
     42,9585	      5476,9	76,0	     5427,81	74,5
     42,9604	     5467,65	73,2	     5420,37	74,2
     42,9624	     5447,35	71,9	     5402,94	75,0
     42,9643	     5442,53	71,5	     5385,06	73,3
     42,9663	     5433,13	74,6	     5380,08	74,4
     42,9682	     5419,34	74,8	     5367,91	76,9
     42,9702	     5401,57	75,0	     5350,73	76,5
     42,9721	      5407,2	75,2	     5322,56	75,6
     42,9741	     5374,99	74,1	     5319,52	75,9
     42,9761	     5358,74	74,4	     5327,99	74,9
      42,978	     5360,42	73,8	     5322,18	72,5
       42,98	      5344,3	76,3	     5311,83	74,0
     42,9819	     5336,93	77,0	     5302,64	76,8
     42,9839	     5316,91	78,8	     5288,23	75,7
     42,9858	      5314,8	76,7	     5265,97	74,4
     42,9878	     5297,98	77,3	     5245,56	74,6
     42,9897	     5278,73	79,4	     5244,82	75,2
     42,9917	     5270,86	81,2	     5225,18	78,5
     42,9936	     5260,48	77,1	     5222,09	79,1
     42,9956	     5236,46	77,2	     5191,15	79,3
     42,9976	     5222,79	80,2	      5191,4	76,8
     42,9995	     5213,87	79,9	     5176,98	77,0
     43,0015	     5198,01	81,3	     5176,81	80,6
     43,0034	     5201,48	80,0	     5163,67	80,1
     43,0054	     5178,81	78,4	     5129,53	80,1
     43,0073	     5169,11	77,1	     5128,68	78,8
     43,0093	     5167,13	80,9	     5102,67	79,2
     43,0112	     5172,42	78,8	     5093,52	78,1
     43,0132	     5155,66	79,4	     5084,55	83,5
     43,0152	     5164,54	79,7	     5068,81	81,5
     43,0171	     5147,17	81,7	     5054,98	79,8
     43,0191	     5108,24	78,4	     5032,25	80,0
      43,021	     5099,28	80,9	     5026,38	82,2
      43,023	     5078,01	82,1	     5014,25	78,0
     43,0249	     5060,45	83,3	     5019,06	82,5
     43,0269	     5035,38	80,7	     5000,95	81,0
     43,0288	     5029,66	81,3	        4996	82,3
     43,0308	     4998,25	81,4	     4985,49	79,8
     43,0327	     5004,88	83,7	     4970,42	79,9
     43,0347	     5016,92	85,6	      4961,2	80,4
     43,0367	     4999,97	84,6	     4946,84	83,8
     43,0386	     4963,79	81,6	      4927,8	82,4
     43,0406	     4961,91	83,2	     4920,96	84,2
     43,0425	     4960,03	83,9	     4896,46	83,7
     43,0445	     4951,48	83,2	     4896,43	83,6
     43,0464	     4932,44	82,0	     4891,83	82,9
     43,0484	     4924,95	85,0	     4882,69	86,2
     43,0503	     4917,94	82,7	     4882,58	85,2
     43,0523	     4889,38	83,2	      4850,1	84,1
     43,0543	     4883,52	81,8	     4853,66	83,0
     43,0562	     4865,13	83,2	     4852,41	82,5
     43,0582	     4870,25	84,3	     4829,64	82,3
     43,0601	     4862,82	85,7	     4796,36	81,4
     43,0621	     4856,41	87,2	     4782,53	85,9
      43,064	     4839,03	83,9	     4777,78	86,2
      43,066	     4821,84	85,4	     4759,84	83,6
     43,0679	     4827,74	87,1	     4756,87	84,2
     43,0699	     4792,94	87,9	     4741,52	83,1
     43,0718	     4771,75	88,7	      4717,9	85,4
     43,0738	     4756,88	87,0	     4707,57	87,5
     43,0758	     4750,36	86,1	     4707,46	87,3
     43,0777	     4744,22	84,5	     4698,05	87,6
     43,0797	     4738,18	88,0	     4689,26	86,9
     43,0816	     4733,38	86,1	     4688,54	88,6
     43,0836	     4719,22	88,5	     4688,76	88,4
     43,0855	      4688,3	86,7	     4682,68	87,8
     43,0875	     4689,12	88,0	     4648,21	88,2
     43,0894	     4672,02	84,6	      4637,1	88,5
     43,0914	     4655,74	86,3	     4603,46	84,8
     43,0934	     4649,43	87,9	     4583,62	85,1
     43,0953	     4640,31	90,9	     4595,88	87,3
     43,0973	     4628,82	89,3	     4564,84	85,1
     43,0992	     4603,15	91,1	     4555,64	87,4
     43,1012	     4597,91	88,3	     4551,79	89,3
     43,1031	     4571,43	88,7	     4533,03	86,6
     43,1051	      4558,8	91,4	     4528,72	89,0
      43,107	     4544,26	89,6	     4503,77	89,7
      43,109	     4554,41	90,2	     4489,38	91,2
     43,1109	     4548,83	92,1	     4494,16	91,9
     43,1129	     4522,89	88,8	     4467,04	89,8
     43,1149	     4508,57	87,5	     4461,93	89,8
     43,1168	     4491,24	89,5	      4467,5	88,7
     43,1188	     4493,85	90,5	     4476,69	89,3
     43,1207	      4471,1	90,9	     4447,69	87,9
     43,1227	     4450,37	91,0	     4447,25	91,0
     43,1246	     4434,04	90,0	      4435,1	88,7
     43,1266	     4426,47	89,6	     4426,48	88,6
     43,1285	     4438,23	91,1	     4414,52	89,6
     43,1305	     4420,96	91,7	     4388,18	87,0
     43,1325	     4394,45	91,9	      4381,5	90,7
     43,1344	     4391,67	95,0	     4350,33	91,8
     43,1364	     4372,14	92,2	     4347,73	92,8
     43,1383	     4362,18	92,1	     4333,65	93,9
     43,1403	     4345,07	92,4	     4310,31	90,6
     43,1422	     4350,62	91,7	     4299,59	90,9
     43,1442	     4349,16	94,0	     4288,01	89,5
     43,1461	     4346,12	91,7	     4272,69	91,9
     43,1481	     4346,08	91,0	     4282,38	92,5
       43,15	     4337,43	92,8	     4293,28	94,0
      43,152	     4308,64	91,1	     4270,55	91,2
      43,154	      4299,3	92,0	     4246,03	90,8
     43,1559	     4281,51	93,3	     4223,96	91,7
     43,1579	     4277,29	95,8	      4213,2	91,6
     43,1598	     4260,97	97,0	     4216,39	93,0
     43,1618	     4236,59	95,4	     4203,85	95,3
     43,1637	      4218,6	95,3	     4206,71	95,0
     43,1657	     4193,64	93,8	     4204,35	96,9
     43,1676	     4203,48	92,2	     4197,51	94,8
     43,1696	     4205,32	96,1	     4156,94	93,8
     43,1716	     4190,19	96,1	     4152,49	91,6
     43,1735	     4174,31	96,1	     4128,79	95,6
     43,1755	     4164,24	94,9	      4123,9	93,3
     43,1774	     4152,93	91,8	     4125,66	94,7
     43,1794	     4137,25	93,2	     4112,81	95,3
     43,1813	      4140,5	93,9	     4098,04	92,6
     43,1833	     4129,13	95,3	     4091,54	93,6
     43,1852	     4106,29	96,9	     4099,88	93,1
     43,1872	      4093,7	98,2	     4100,97	96,5
     43,1891	      4063,1	95,5	     4075,09	96,6
     43,1911	     4038,64	96,4	     4076,46	98,7
     43,1931	     4038,56	95,3	     4041,93	96,7
      43,195	     4026,72	96,1	     4037,82	96,5
      43,197	     4034,51	93,7	      4037,5	95,4
     43,1989	     4032,08	97,4	     4026,72	94,4
     43,2009	      4025,3	97,0	     4016,31	96,7
     43,2028	     4015,19	96,0	     3993,03	96,3
     43,2048	     4017,99	97,0	     3978,89	95,4
     43,2067	     3997,96	94,7	     3962,92	97,4
     43,2087	     3974,88	96,6	     3941,85	94,7
     43,2107	     3960,89	98,8	     3930,08	96,8
     43,2126	     3950,89	99,7	     3912,87	96,2
     43,2146	     3949,62	100,1	     3908,98	96,7
     43,2165	     3935,49	100,6	     3891,35	100,3
     43,2185	     3921,24	98,8	     3891,24	98,8
     43,2204	     3900,57	95,7	     3878,59	99,4
     43,2224	      3893,7	97,4	     3885,22	97,0
     43,2243	     3887,65	96,3	        3876	93,8
     43,2263	     3885,71	98,6	     3857,33	95,4
     43,2282	     3866,43	98,2	     3860,46	98,4
     43,2302	     3863,84	100,3	     3832,78	98,0
     43,2322	     3855,89	98,1	     3828,94	98,8
     43,2341	     3835,13	100,0	     3808,66	100,6
     43,2361	     3815,61	98,8	      3803,3	100,7
      43,238	     3801,67	98,8	     3793,11	98,1
       43,24	     3818,62	103,0	     3791,04	98,4
     43,2419	     3794,38	99,5	     3776,77	99,0
     43,2439	     3796,01	99,8	     3777,31	96,9
     43,2458	     3798,52	98,2	     3765,77	99,6
     43,2478	     3790,37	98,4	     3758,66	97,3
     43,2498	      3767,9	97,7	      3744,1	100,4
     43,2517	     3766,97	99,2	     3739,56	99,8
     43,2537	     3764,31	99,5	     3712,24	98,8
     43,2556	     3754,15	100,8	     3707,89	97,4
     43,2576	     3740,18	102,9	      3696,5	99,7
     43,2595	     3689,56	100,8	     3695,52	98,5
     43,2615	     3671,77	102,4	     3699,43	102,1
     43,2634	     3656,94	101,4	      3683,8	99,1
     43,2654	     3649,09	99,6	     3668,08	102,2
     43,2673	     3660,74	101,3	     3664,92	99,4
     43,2693	     3659,25	100,7	     3645,05	96,5
     43,2713	     3654,01	102,1	      3632,3	98,4
     43,2732	     3636,62	102,2	     3631,35	98,6
     43,2752	     3615,19	98,6	     3622,59	100,4
     43,2771	     3609,82	99,0	     3618,45	102,1
     43,2791	     3616,24	102,1	     3603,19	104,1
      43,281	     3604,48	101,3	     3584,62	102,9
      43,283	     3607,66	101,8	     3589,74	102,8
     43,2849	     3608,97	105,3	     3578,57	101,3
     43,2869	     3594,91	103,0	     3576,24	99,8
     43,2889	     3567,01	103,1	     3539,53	101,1
     43,2908	     3556,08	103,3	     3539,29	99,8
     43,2928	     3536,42	100,8	     3540,66	103,9
     43,2947	     3551,67	99,0	     3528,43	102,5
     43,2967	     3536,87	101,7	      3526,6	102,8
     43,2986	     3516,49	104,7	     3517,49	104,0
     43,3006	     3491,06	103,6	     3515,28	101,5
     43,3025	     3489,64	104,8	     3514,93	101,9
     43,3045	     3495,25	104,4	      3502,6	102,9
     43,3064	     3481,38	104,7	     3496,95	100,7
     43,3084	     3468,86	103,0	     3481,21	104,0
     43,3104	     3473,55	101,8	     3458,92	102,8
     43,3123	     3467,02	103,0	     3435,05	105,4
     43,3143	      3465,5	103,0	     3423,09	102,1
     43,3162	     3446,55	102,8	     3423,06	104,8
     43,3182	     3415,42	106,4	     3417,76	102,6
     43,3201	      3415,8	104,1	     3410,32	104,5
     43,3221	     3429,93	104,1	     3404,08	103,3
      43,324	     3413,78	105,4	     3396,43	103,7
      43,326	     3379,75	104,3	     3412,08	106,1
      43,328	     3378,11	102,4	     3404,15	103,1
     43,3299	     3391,01	106,4	      3376,3	101,0
     43,3319	     3381,92	103,5	     3359,31	102,6
     43,3338	     3365,27	103,0	     3364,45	101,2
     43,3358	     3360,52	105,3	     3349,23	102,6
     43,3377	     3356,69	101,8	     3335,29	104,3
     43,3397	     3363,74	105,7	     3315,98	102,4
     43,3416	     3349,19	104,0	     3307,62	108,0
     43,3436	     3331,03	105,8	     3324,52	106,1
     43,3456	     3300,93	102,9	     3317,99	104,3
     43,3475	     3297,17	107,1	     3321,55	103,5
     43,3495	     3295,26	104,5	     3302,46	101,5
     43,3514	        3295	105,5	      3294,1	102,3
     43,3534	     3300,78	106,5	     3265,85	103,9
     43,3553	     3281,32	104,2	     3247,17	106,3
     43,3573	     3279,06	106,0	     3247,67	106,5
     43,3592	     3257,05	104,0	     3231,71	107,6
     43,3612	     3243,01	105,6	     3234,67	106,6
     43,3631	     3237,79	106,2	     3225,19	107,3
     43,3651	      3234,8	104,9	     3219,12	104,1
     43,3671	     3224,66	107,8	     3218,56	101,1
      43,369	     3218,35	106,3	     3198,62	102,8
      43,371	     3200,59	103,9	     3175,27	104,7
     43,3729	     3192,08	106,1	     3187,25	106,1
     43,3749	      3190,9	103,7	     3187,22	106,9
     43,3768	     3185,39	105,0	     3189,09	108,2
     43,3788	     3182,17	108,0	     3181,42	107,1
     43,3807	     3154,56	106,8	     3164,45	107,7
     43,3827	     3147,94	108,1	     3157,53	105,3
     43,3847	     3151,04	106,0	     3143,25	103,9
     43,3866	     3155,98	108,7	     3143,06	104,5
     43,3886	     3135,88	105,8	     3132,58	104,9
     43,3905	     3127,34	107,1	     3121,08	106,1
     43,3925	     3130,17	105,8	     3094,29	109,8
     43,3944	     3123,03	104,7	     3103,64	108,5
     43,3964	     3107,24	106,6	     3104,56	111,2
     43,3983	     3090,07	106,5	     3121,09	109,6
     43,4003	     3086,46	107,0	     3123,63	105,9
     43,4022	     3093,14	109,4	      3106,8	105,0
     43,4042	     3094,72	106,9	     3091,22	103,2
     43,4062	        3085	106,1	     3053,38	104,2
     43,4081	     3086,59	108,8	     3038,88	105,7
     43,4101	     3079,83	105,8	     3030,53	109,4
      43,412	      3063,2	108,0	     3027,52	110,1
      43,414	     3044,89	109,1	     3027,36	109,1
     43,4159	     3021,11	106,6	     3023,29	108,2
     43,4179	     3020,54	106,6	     3033,08	108,8
     43,4198	     3016,73	109,0	     3024,16	106,3
     43,4218	     3006,95	107,4	     2996,85	105,6
     43,4238	     2994,48	109,5	      2976,1	107,6
     43,4257	     2987,65	110,3	     2990,79	107,3
     43,4277	     2999,49	108,4	      2987,4	107,5
     43,4296	     2999,45	110,7	     2986,53	110,7
     43,4316	     2990,32	109,2	     2975,21	107,4
     43,4335	     2978,76	106,9	     2982,52	108,8
     43,4355	     2970,88	107,2	     2977,63	106,8
     43,4374	     2975,65	105,5	     2963,64	107,9
     43,4394	     2962,49	109,4	      2937,9	105,8
     43,4413	     2955,93	109,3	     2929,81	108,3
     43,4433	     2945,54	111,0	     2912,81	108,4
     43,4453	     2913,03	113,1	     2914,46	108,2
     43,4472	     2911,23	110,4	     2928,73	106,8
     43,4492	     2910,05	109,8	     2937,99	108,5
     43,4511	     2900,62	110,3	     2904,99	108,0
     43,4531	     2906,07	106,5	     2886,02	108,5
      43,455	     2895,95	106,4	     2898,89	111,9
      43,457	     2901,41	110,0	     2898,61	107,8
     43,4589	     2895,87	108,4	     2883,08	109,2
     43,4609	     2878,35	110,8	     2861,11	109,6
     43,4629	     2884,27	111,9	      2843,4	109,1
     43,4648	      2872,7	112,2	     2851,02	106,1
     43,4668	      2862,8	109,8	     2821,52	107,9
     43,4687	     2855,01	109,9	      2809,6	108,0
     43,4707	      2856,8	107,5	     2825,04	110,6
     43,4726	     2859,51	107,9	     2833,31	111,2
     43,4746	     2838,19	108,2	     2829,62	111,5
     43,4765	     2807,93	109,7	      2838,9	110,7
     43,4785	     2797,12	112,1	      2817,3	110,2
     43,4804	     2786,25	110,0	     2807,43	108,0
     43,4824	     2787,86	110,4	     2776,87	110,1
     43,4844	     2813,49	109,8	     2789,76	107,2
     43,4863	      2809,4	111,5	     2755,87	108,4
     43,4883	     2813,64	110,2	     2752,28	109,6
     43,4902	     2822,64	113,1	     2766,69	111,2
     43,4922	     2793,99	111,6	     2768,59	111,2
     43,4941	     2761,74	111,9	     2761,67	110,5
     43,4961	     2748,51	110,7	     2769,84	111,3
      43,498	     2734,86	109,1	     2755,32	109,8
        43,5	      2738,2	113,1	     2736,55	110,9

