X-Data [Hz]	Piezo (M - Filtered) [mV]	Phase [Deg]	Piezo (M - Filtered) [mV]	Phase [Deg]	
	002: [07-10-24 07:54]		003: [07-10-24 07:57]	
        41,5	     492,652	-99,1	     547,003	-99,4
      41,502	     497,057	-100,6	     547,782	-100,4
     41,5039	     505,837	-98,1	     547,183	-99,0
     41,5059	     520,651	-98,3	     549,562	-100,5
     41,5078	     532,273	-99,3	     547,152	-98,8
     41,5098	     537,586	-98,9	     548,986	-99,9
     41,5117	     541,784	-101,0	     550,576	-99,2
     41,5137	     541,416	-99,7	     551,476	-98,9
     41,5156	     545,486	-100,2	     555,909	-99,9
     41,5176	     547,905	-100,0	      554,67	-98,5
     41,5196	     548,978	-99,9	     555,367	-99,6
     41,5215	     549,371	-100,6	      554,82	-98,6
     41,5235	     547,595	-99,0	      555,64	-98,7
     41,5254	     550,841	-99,5	     561,453	-99,8
     41,5274	     551,388	-98,8	     560,826	-98,8
     41,5293	     554,074	-99,2	     564,538	-100,0
     41,5313	     554,956	-99,2	     563,146	-98,8
     41,5332	     555,562	-99,0	     566,447	-99,9
     41,5352	      557,54	-99,5	     567,509	-99,8
     41,5371	     556,393	-99,0	     565,555	-99,9
     41,5391	     559,537	-100,4	     569,746	-100,6
     41,5411	     560,455	-99,2	     566,261	-98,4
      41,543	     564,755	-100,1	     568,865	-99,6
      41,545	     563,466	-99,7	     570,917	-98,6
     41,5469	     561,938	-98,5	     572,691	-99,3
     41,5489	     563,832	-100,0	     574,153	-98,7
     41,5508	     564,399	-98,8	     573,701	-98,2
     41,5528	     570,476	-99,9	     577,193	-99,1
     41,5547	      571,22	-100,1	     577,244	-98,2
     41,5567	     571,088	-98,5	     581,423	-100,0
     41,5587	      571,22	-99,1	     580,444	-99,2
     41,5606	      571,14	-98,3	     580,385	-99,4
     41,5626	     574,525	-99,8	     584,412	-99,7
     41,5645	     573,194	-98,7	     584,275	-98,8
     41,5665	     575,446	-98,1	     585,776	-99,8
     41,5684	     576,484	-99,4	     586,054	-99,3
     41,5704	     576,862	-98,1	     587,269	-99,3
     41,5723	     582,047	-99,8	     587,633	-97,7
     41,5743	     581,055	-99,0	     588,913	-98,0
     41,5762	     583,349	-99,1	     592,687	-98,6
     41,5782	     584,387	-99,5	      592,65	-97,8
     41,5802	     583,814	-98,7	     597,095	-99,1
     41,5821	     586,539	-99,4	     596,601	-98,3
     41,5841	     588,459	-97,8	     597,641	-99,0
      41,586	     590,964	-99,1	     599,681	-98,9
      41,588	     588,556	-98,0	     599,187	-98,8
     41,5899	     589,486	-98,0	     603,847	-99,3
     41,5919	     591,193	-98,8	     603,729	-98,8
     41,5938	     591,365	-97,8	     604,566	-98,7
     41,5958	     595,553	-99,3	     606,522	-98,8
     41,5978	     593,754	-98,4	     604,933	-98,5
     41,5997	     597,204	-98,7	     610,085	-99,3
     41,6017	     598,086	-98,9	     609,171	-97,4
     41,6036	      599,82	-98,0	      612,38	-98,6
     41,6056	     602,956	-99,3	     610,663	-97,8
     41,6075	     600,541	-97,3	     611,468	-97,1
     41,6095	     603,171	-98,0	     615,447	-98,7
     41,6114	     604,421	-97,8	      616,38	-97,8
     41,6134	     606,665	-97,7	     619,837	-98,4
     41,6153	     608,589	-98,6	     617,649	-97,7
     41,6173	     608,945	-97,3	     618,838	-98,3
     41,6193	     611,213	-97,8	      623,14	-98,9
     41,6212	     610,404	-98,3	     622,392	-97,6
     41,6232	      610,85	-97,3	     625,719	-98,5
     41,6251	     615,043	-98,8	     626,459	-96,6
     41,6271	     615,385	-98,1	     626,531	-97,1
      41,629	     620,674	-98,6	     629,168	-97,5
      41,631	     621,105	-98,6	     630,216	-97,2
     41,6329	     621,162	-97,7	     634,269	-98,1
     41,6349	     623,011	-98,5	     634,691	-96,6
     41,6369	      623,08	-97,4	     634,471	-97,0
     41,6388	     625,553	-97,6	     637,999	-97,4
     41,6408	     626,293	-97,1	     639,078	-97,9
     41,6427	     627,011	-96,9	     642,949	-98,7
     41,6447	     630,322	-98,1	     641,286	-96,4
     41,6466	     628,998	-97,2	     643,955	-97,3
     41,6486	     634,154	-98,4	      644,88	-97,5
     41,6505	     635,691	-98,4	     646,652	-97,4
     41,6525	     635,898	-97,1	      650,35	-97,7
     41,6544	     637,316	-97,8	     647,938	-96,6
     41,6564	     636,956	-96,8	     650,362	-97,1
     41,6584	      640,98	-97,8	     652,683	-96,3
     41,6603	     642,703	-97,8	     652,878	-95,6
     41,6623	      642,81	-96,7	     658,814	-97,7
     41,6642	     647,133	-97,9	      658,06	-96,6
     41,6662	     644,145	-96,3	     662,251	-97,6
     41,6681	     646,098	-96,2	     663,926	-97,7
     41,6701	     648,004	-97,4	     664,803	-96,3
      41,672	     650,305	-96,2	     667,776	-97,0
      41,674	     652,957	-97,9	     666,606	-96,2
      41,676	     652,525	-96,7	     668,875	-96,8
     41,6779	      656,48	-97,1	      668,82	-95,9
     41,6799	     658,552	-97,2	     668,185	-95,7
     41,6818	     657,997	-96,4	      675,51	-96,6
     41,6838	     661,128	-97,3	     676,193	-95,7
     41,6857	     661,384	-95,8	     679,492	-97,1
     41,6877	     664,876	-96,1	     681,243	-97,0
     41,6896	     666,291	-96,8	     677,727	-96,3
     41,6916	      664,93	-96,3	     682,203	-96,8
     41,6936	     670,319	-97,2	     684,065	-95,5
     41,6955	     669,421	-96,8	     687,286	-96,0
     41,6975	     674,466	-96,5	     688,409	-95,7
     41,6994	     676,827	-96,9	      687,68	-95,4
     41,7014	     676,466	-95,6	     692,748	-96,5
     41,7033	     678,345	-96,1	     692,463	-95,4
     41,7053	     678,962	-96,1	     694,935	-96,2
     41,7072	     680,884	-95,4	     696,737	-96,2
     41,7092	     685,433	-96,9	     697,902	-95,9
     41,7111	     684,745	-95,9	     700,961	-96,4
     41,7131	      686,07	-96,8	     701,304	-94,8
     41,7151	     686,577	-96,2	     704,413	-95,7
      41,717	      686,73	-95,5	      706,71	-94,6
      41,719	     692,138	-97,1	     707,085	-94,6
     41,7209	     693,468	-96,3	     709,867	-95,5
     41,7229	     697,163	-95,6	     711,485	-95,2
     41,7248	     698,547	-96,3	     713,481	-94,7
     41,7268	      698,06	-94,8	     717,913	-95,4
     41,7287	      702,44	-95,3	     718,082	-94,5
     41,7307	     701,358	-95,6	     723,421	-95,7
     41,7327	     703,493	-95,0	     723,043	-94,5
     41,7346	     707,449	-95,9	     723,881	-94,8
     41,7366	     707,859	-94,9	     727,158	-94,8
     41,7385	     710,528	-94,5	     726,964	-94,0
     41,7405	     713,691	-96,0	     728,948	-94,5
     41,7424	     713,906	-94,8	     732,135	-94,3
     41,7444	     717,556	-95,7	     732,828	-94,0
     41,7463	     716,985	-94,8	      740,22	-95,5
     41,7483	     719,101	-94,3	     740,284	-94,7
     41,7502	     723,375	-95,3	     741,453	-94,9
     41,7522	     722,943	-94,4	     744,238	-95,2
     41,7542	     727,862	-95,5	     745,343	-93,8
     41,7561	     728,657	-95,6	     748,103	-94,5
     41,7581	     730,581	-94,9	     750,086	-93,8
       41,76	     733,726	-95,2	     750,254	-93,9
      41,762	     734,701	-95,3	      754,15	-94,2
     41,7639	     735,739	-94,5	     755,407	-93,5
     41,7659	     739,281	-95,1	      762,33	-94,9
     41,7678	     737,181	-93,9	     763,241	-93,4
     41,7698	     742,426	-94,2	     764,039	-94,2
     41,7718	     744,752	-94,4	     766,729	-94,7
     41,7737	     746,128	-93,7	     765,515	-93,2
     41,7757	     749,778	-95,0	     768,573	-94,1
     41,7776	     750,994	-94,0	     774,385	-93,4
     41,7796	     754,952	-94,6	      773,77	-92,6
     41,7815	     755,545	-94,7	     780,049	-94,5
     41,7835	     755,873	-93,8	     781,923	-93,6
     41,7854	     759,004	-94,0	     784,185	-94,0
     41,7874	     761,603	-93,5	     787,526	-94,2
     41,7893	     764,064	-93,2	     785,517	-92,9
     41,7913	     767,639	-94,2	     788,089	-93,3
     41,7933	     767,299	-93,5	     792,236	-92,6
     41,7952	     773,924	-94,4	     793,623	-92,4
     41,7972	     774,785	-94,4	     798,762	-93,5
     41,7991	     775,207	-93,7	     800,208	-93,1
     41,8011	      779,62	-93,6	     804,117	-93,4
      41,803	     781,569	-94,0	     806,502	-93,1
      41,805	     782,942	-92,5	     807,174	-92,2
     41,8069	     786,534	-93,0	     811,342	-93,0
     41,8089	     787,461	-93,4	     812,936	-92,2
     41,8109	     793,154	-93,7	     814,166	-92,2
     41,8128	     795,435	-94,1	     817,583	-93,2
     41,8148	     794,537	-93,2	      818,28	-91,6
     41,8167	     799,345	-93,0	     821,471	-91,6
     41,8187	      801,23	-93,2	     828,126	-92,3
     41,8206	     802,948	-92,3	     828,902	-91,5
     41,8226	     804,936	-93,3	     833,377	-92,9
     41,8245	     805,882	-92,0	     837,019	-92,6
     41,8265	     810,514	-92,0	     838,572	-91,8
     41,8284	     815,216	-93,1	     843,567	-92,2
     41,8304	     814,967	-92,3	     842,365	-90,8
     41,8324	     819,947	-92,3	     844,064	-91,2
     41,8343	     822,164	-92,7	     849,811	-91,5
     41,8363	      822,95	-91,8	     851,766	-90,9
     41,8382	     826,956	-92,3	     857,509	-92,4
     41,8402	     828,017	-92,3	     859,498	-91,7
     41,8421	     828,416	-91,3	     861,488	-91,3
     41,8441	     833,948	-92,3	     866,115	-91,7
      41,846	     835,134	-91,7	     868,034	-90,6
      41,848	     841,705	-91,9	      871,16	-91,3
       41,85	     845,147	-92,2	     876,055	-91,7
     41,8519	     847,041	-91,0	     876,387	-90,3
     41,8539	     849,584	-91,1	     879,256	-90,9
     41,8558	     853,477	-91,5	     881,843	-90,1
     41,8578	     853,748	-90,8	     883,566	-89,8
     41,8597	     858,809	-91,6	     891,657	-90,9
     41,8617	     859,814	-91,2	     894,263	-90,3
     41,8636	     865,275	-91,0	      897,01	-90,4
     41,8656	     869,605	-91,9	      901,49	-90,9
     41,8675	     868,378	-90,4	     904,815	-90,3
     41,8695	     871,867	-90,3	     907,074	-90,1
     41,8715	       875,5	-91,1	     913,049	-90,6
     41,8734	     874,904	-90,5	     913,841	-88,7
     41,8754	     881,553	-90,4	     921,429	-90,4
     41,8773	     885,056	-90,8	     923,278	-89,6
     41,8793	     887,579	-89,8	     925,353	-89,7
     41,8812	     891,529	-90,1	     930,892	-90,6
     41,8832	     894,666	-90,3	     930,846	-88,3
     41,8851	     895,333	-90,1	     933,347	-89,0
     41,8871	     900,933	-90,4	      940,13	-89,4
     41,8891	     904,864	-90,1	     941,462	-88,3
      41,891	     906,169	-89,0	     946,046	-88,4
      41,893	      911,38	-89,9	     951,796	-88,7
     41,8949	     912,299	-89,2	     954,037	-88,2
     41,8969	     917,282	-88,7	     960,894	-89,1
     41,8988	     923,371	-89,9	     964,024	-88,5
     41,9008	     924,533	-89,3	     967,411	-88,3
     41,9027	     930,288	-89,0	     973,452	-88,6
     41,9047	     933,969	-89,7	     976,752	-87,5
     41,9066	     933,554	-88,3	     979,702	-87,8
     41,9086	     937,871	-88,3	     984,749	-88,2
     41,9106	      942,25	-89,1	     985,545	-86,9
     41,9125	     946,491	-88,2	     994,325	-88,1
     41,9145	     951,185	-89,2	     997,565	-87,5
     41,9164	     950,753	-87,7	     999,682	-86,8
     41,9184	     955,145	-87,6	     1006,91	-87,3
     41,9203	     961,161	-88,7	     1011,93	-87,5
     41,9223	     963,145	-87,6	     1013,61	-86,7
     41,9242	     967,494	-87,4	     1018,91	-87,3
     41,9262	      975,29	-88,7	     1022,85	-85,6
     41,9282	     977,106	-87,9	     1024,97	-85,8
     41,9301	     982,795	-87,4	     1034,95	-86,5
     41,9321	     986,472	-88,1	     1038,19	-85,6
      41,934	     987,579	-86,5	     1045,78	-86,4
      41,936	     995,502	-87,8	     1050,48	-86,6
     41,9379	     996,081	-87,2	     1056,39	-85,4
     41,9399	     1001,24	-86,6	     1060,46	-85,7
     41,9418	      1006,4	-87,1	     1068,07	-86,4
     41,9438	     1010,22	-86,5	     1069,29	-84,2
     41,9457	     1013,46	-85,8	     1073,63	-85,2
     41,9477	     1019,87	-86,5	     1083,69	-84,9
     41,9497	     1021,68	-86,1	     1086,83	-84,1
     41,9516	     1025,85	-85,5	     1096,36	-85,5
     41,9536	     1034,61	-86,4	     1101,72	-85,0
     41,9555	     1037,24	-86,2	     1103,58	-84,1
     41,9575	     1042,62	-85,5	     1110,15	-84,7
     41,9594	     1047,69	-85,8	      1116,4	-84,4
     41,9614	     1050,49	-85,7	     1120,88	-83,5
     41,9633	     1052,47	-85,0	     1128,03	-83,7
     41,9653	      1061,2	-85,7	     1137,15	-82,9
     41,9673	     1062,65	-84,4	     1140,93	-82,6
     41,9692	     1068,73	-84,6	     1151,75	-83,6
     41,9712	     1075,78	-85,0	     1157,08	-83,0
     41,9731	     1078,67	-84,1	     1161,58	-82,8
     41,9751	     1083,07	-84,0	     1173,51	-82,4
      41,977	     1090,37	-84,7	     1178,53	-81,5
      41,979	     1093,63	-83,9	     1187,71	-82,3
     41,9809	     1102,84	-84,3	     1196,09	-82,0
     41,9829	     1106,74	-84,2	     1201,21	-81,3
     41,9848	     1110,02	-82,7	      1209,1	-81,6
     41,9868	     1116,38	-83,6	     1217,65	-81,7
     41,9888	     1121,69	-83,6	     1224,29	-80,1
     41,9907	     1126,08	-82,9	     1231,92	-80,5
     41,9927	     1132,58	-82,5	     1244,16	-80,2
     41,9946	     1139,03	-83,3	     1248,99	-79,4
     41,9966	     1143,19	-82,9	     1258,29	-80,2
     41,9985	     1152,01	-82,4	     1269,05	-79,6
     42,0005	     1156,29	-81,5	     1277,83	-78,4
     42,0024	     1162,53	-81,1	     1286,62	-78,8
     42,0044	     1168,48	-81,2	     1300,15	-78,6
     42,0064	     1174,83	-81,7	     1308,02	-78,0
     42,0083	     1179,08	-81,4	     1320,69	-78,3
     42,0103	     1190,57	-81,7	     1330,61	-77,9
     42,0122	     1195,43	-81,7	     1341,12	-76,8
     42,0142	     1201,61	-80,5	     1353,38	-76,9
     42,0161	     1209,02	-80,5	     1368,88	-75,9
     42,0181	     1213,18	-79,8	     1379,23	-75,3
       42,02	      1218,8	-79,4	     1396,42	-76,5
      42,022	      1228,9	-80,4	     1408,74	-75,8
     42,0239	     1234,49	-80,0	     1419,69	-74,9
     42,0259	     1243,36	-79,5	     1434,42	-74,9
     42,0279	     1249,56	-79,6	     1451,48	-73,0
     42,0298	     1254,53	-78,6	     1462,83	-72,8
     42,0318	     1262,17	-78,0	     1485,49	-73,4
     42,0337	     1270,72	-78,5	     1498,46	-72,1
     42,0357	     1275,42	-78,1	     1515,52	-72,3
     42,0376	     1282,62	-77,4	     1530,71	-72,2
     42,0396	     1294,87	-78,1	     1547,65	-70,4
     42,0415	     1300,88	-77,9	     1562,72	-70,1
     42,0435	     1310,61	-77,1	     1585,15	-70,2
     42,0455	     1318,95	-77,5	     1599,47	-68,9
     42,0474	     1325,07	-76,3	     1617,08	-68,3
     42,0494	     1333,97	-75,6	     1634,18	-68,1
     42,0513	     1344,71	-76,4	     1654,38	-66,2
     42,0533	     1351,26	-75,6	     1666,79	-66,2
     42,0552	     1360,83	-75,4	     1691,91	-66,2
     42,0572	     1367,75	-75,3	     1705,59	-65,4
     42,0591	     1376,06	-74,4	     1722,64	-64,6
     42,0611	     1387,86	-74,5	     1739,73	-64,3
      42,063	     1397,48	-74,5	     1760,44	-62,5
      42,065	     1405,64	-73,6	     1772,73	-62,0
      42,067	     1414,05	-73,2	     1797,05	-61,8
     42,0689	     1429,47	-73,8	     1811,71	-60,7
     42,0709	     1435,96	-73,3	     1828,05	-59,8
     42,0728	     1444,53	-72,0	     1842,76	-59,7
     42,0748	     1455,69	-71,9	     1861,97	-58,6
     42,0767	     1464,18	-71,5	     1874,74	-57,8
     42,0787	     1473,05	-70,9	     1895,77	-57,6
     42,0806	     1488,67	-71,2	     1908,32	-56,7
     42,0826	     1497,67	-71,2	     1922,02	-55,5
     42,0846	     1511,06	-69,9	     1935,05	-55,3
     42,0865	     1521,66	-70,1	     1951,32	-53,7
     42,0885	     1533,72	-68,5	     1960,21	-53,1
     42,0904	     1543,16	-67,9	     1978,65	-53,3
     42,0924	     1558,68	-68,2	     1990,54	-52,4
     42,0943	     1568,33	-67,9	     1999,82	-51,3
     42,0963	     1581,49	-66,8	     2011,26	-51,4
     42,0982	     1594,91	-66,8	     2026,07	-50,2
     42,1002	     1605,59	-66,6	     2031,17	-49,5
     42,1021	      1619,5	-65,3	     2046,64	-48,9
     42,1041	     1633,49	-65,0	     2056,19	-48,2
     42,1061	     1647,53	-64,6	      2062,9	-47,5
      42,108	     1657,43	-63,8	     2071,61	-47,0
       42,11	      1675,1	-63,2	      2084,6	-46,1
     42,1119	     1686,53	-63,2	     2090,27	-45,5
     42,1139	     1700,64	-61,4	     2101,41	-45,6
     42,1158	     1714,37	-61,3	     2109,68	-45,1
     42,1178	      1730,4	-60,9	     2114,43	-43,7
     42,1197	     1743,81	-60,1	     2119,63	-43,6
     42,1217	     1755,58	-59,1	     2131,25	-42,8
     42,1237	     1775,96	-59,6	     2136,27	-41,8
     42,1256	     1786,11	-58,5	     2141,86	-41,6
     42,1276	     1806,33	-57,3	     2149,49	-41,2
     42,1295	      1819,6	-57,0	     2156,25	-40,3
     42,1315	     1831,11	-55,5	      2161,5	-39,7
     42,1334	     1852,03	-54,8	     2173,66	-39,7
     42,1354	     1864,65	-54,6	     2176,55	-38,5
     42,1373	     1874,83	-54,1	     2178,39	-38,1
     42,1393	     1896,21	-52,6	     2184,92	-38,6
     42,1413	     1910,53	-52,3	     2189,64	-36,8
     42,1432	     1923,41	-51,7	      2192,7	-36,9
     42,1452	     1937,14	-50,3	     2199,65	-36,3
     42,1471	      1960,6	-50,3	     2203,42	-35,5
     42,1491	     1973,27	-49,3	     2204,46	-34,9
      42,151	     1992,87	-47,2	     2209,88	-35,1
      42,153	     2008,27	-47,0	     2215,27	-34,3
     42,1549	     2022,81	-45,8	      2216,2	-33,9
     42,1569	     2036,75	-44,5	     2218,66	-33,5
     42,1588	     2051,79	-43,9	     2224,93	-33,6
     42,1608	     2068,18	-43,5	     2226,99	-32,6
     42,1628	     2079,13	-42,4	     2226,83	-32,4
     42,1647	     2099,97	-41,8	      2231,3	-32,4
     42,1667	     2110,89	-40,7	     2234,24	-30,6
     42,1686	     2121,92	-40,0	      2235,3	-30,4
     42,1706	     2138,75	-39,1	     2240,58	-30,3
     42,1725	     2147,76	-38,6	     2242,24	-29,8
     42,1745	     2156,04	-36,8	     2241,39	-29,5
     42,1764	     2166,13	-36,0	     2241,89	-29,2
     42,1784	     2176,84	-36,0	     2246,42	-28,6
     42,1804	     2182,49	-34,9	     2246,98	-28,2
     42,1823	     2195,24	-34,0	     2250,76	-28,2
     42,1843	     2202,79	-33,8	     2252,12	-28,1
     42,1862	     2207,87	-32,8	     2251,84	-26,6
     42,1882	     2215,96	-32,2	     2253,13	-26,9
     42,1901	     2222,71	-31,6	     2256,64	-25,8
     42,1921	     2225,96	-31,0	     2255,99	-25,3
      42,194	     2230,66	-30,9	     2255,52	-25,9
      42,196	     2240,89	-29,4	     2258,68	-25,4
     42,1979	     2242,72	-29,5	     2257,44	-24,6
     42,1999	     2244,17	-28,1	     2255,93	-24,7
     42,2019	     2247,22	-27,6	     2260,92	-24,3
     42,2038	     2252,45	-27,5	      2261,7	-23,9
     42,2058	     2253,45	-26,7	      2257,9	-23,7
     42,2077	     2261,08	-26,0	     2258,41	-23,7
     42,2097	     2263,79	-26,0	     2257,99	-22,1
     42,2116	     2262,58	-25,3	      2258,5	-22,2
     42,2136	     2265,13	-24,7	     2259,33	-21,8
     42,2155	      2267,6	-24,6	     2261,14	-21,5
     42,2175	      2265,5	-24,6	     2260,05	-20,7
     42,2195	     2269,02	-22,9	     2255,02	-21,5
     42,2214	      2270,4	-22,8	     2256,83	-21,3
     42,2234	     2270,67	-22,8	     2255,38	-20,0
     42,2253	     2270,36	-21,5	     2253,77	-19,8
     42,2273	     2271,94	-21,3	     2258,09	-20,4
     42,2292	     2270,72	-22,0	     2254,06	-18,9
     42,2312	     2269,68	-21,0	     2252,08	-19,0
     42,2331	     2273,69	-21,0	     2251,04	-19,1
     42,2351	     2272,22	-21,0	     2256,23	-18,2
      42,237	     2269,99	-20,6	     2256,05	-18,0
      42,239	     2271,26	-19,5	     2252,22	-18,2
      42,241	     2272,52	-19,3	      2254,2	-17,9
     42,2429	      2267,4	-19,1	     2248,79	-17,0
     42,2449	     2267,25	-18,8	     2246,77	-16,9
     42,2468	     2272,04	-17,9	     2249,29	-17,0
     42,2488	     2267,08	-18,0	     2248,39	-16,4
     42,2507	     2266,36	-17,0	     2242,34	-16,2
     42,2527	     2269,68	-17,2	     2242,28	-16,2
     42,2546	     2267,34	-17,0	     2245,99	-15,5
     42,2566	        2265	-16,6	     2242,93	-15,4
     42,2586	      2264,8	-15,7	     2239,85	-15,3
     42,2605	     2263,66	-16,3	     2240,23	-15,1
     42,2625	     2262,06	-15,9	        2235	-14,2
     42,2644	     2262,92	-15,0	     2233,87	-13,9
     42,2664	     2261,14	-15,4	     2237,56	-13,6
     42,2683	     2259,55	-15,1	     2235,67	-12,8
     42,2703	     2256,77	-14,1	     2229,99	-13,3
     42,2722	     2257,63	-14,1	      2228,1	-12,9
     42,2742	     2254,34	-14,0	     2230,45	-12,2
     42,2761	     2251,44	-13,5	     2229,17	-12,0
     42,2781	     2251,95	-12,6	     2226,64	-12,6
     42,2801	     2251,48	-12,3	     2227,04	-12,4
      42,282	     2246,26	-12,4	     2224,77	-11,6
      42,284	     2242,85	-12,0	     2218,02	-11,8
     42,2859	     2245,59	-12,2	     2216,99	-11,7
     42,2879	     2242,41	-11,8	     2218,38	-10,6
     42,2898	     2240,11	-11,5	     2215,03	-10,6
     42,2918	     2239,77	-10,7	      2211,7	-10,6
     42,2937	     2236,84	-11,4	     2210,96	-10,6
     42,2957	     2232,17	-11,2	     2207,67	-9,7
     42,2977	     2232,22	-10,1	     2205,12	-9,3
     42,2996	     2232,65	-10,2	     2207,33	-9,2
     42,3016	     2226,83	-9,9	     2204,68	-8,8
     42,3035	     2224,39	-9,5	     2197,56	-9,0
     42,3055	     2224,74	-8,7	     2197,95	-9,1
     42,3074	     2221,66	-9,3	     2199,28	-8,5
     42,3094	     2216,75	-8,6	     2195,03	-8,3
     42,3113	     2216,39	-8,0	     2191,95	-8,5
     42,3133	     2213,53	-8,8	     2190,73	-8,2
     42,3153	     2210,44	-8,4	     2189,04	-7,5
     42,3172	     2210,74	-7,7	     2184,53	-7,2
     42,3192	     2210,09	-7,5	     2183,64	-7,7
     42,3211	     2203,71	-7,7	     2181,71	-7,2
     42,3231	     2200,69	-7,5	     2175,08	-6,7
      42,325	      2202,2	-6,8	     2175,25	-7,7
      42,327	     2201,38	-7,0	     2177,75	-5,9
     42,3289	     2194,55	-6,1	     2173,16	-5,6
     42,3309	     2193,56	-6,0	     2169,89	-5,4
     42,3328	      2192,4	-5,9	     2167,94	-6,6
     42,3348	     2187,84	-5,7	     2162,44	-5,9
     42,3368	     2184,38	-5,7	     2156,12	-5,0
     42,3387	     2183,93	-4,7	     2152,01	-5,5
     42,3407	      2182,3	-4,5	      2149,9	-5,3
     42,3426	     2175,33	-4,9	     2148,01	-4,9
     42,3446	     2175,24	-4,0	     2144,57	-4,5
     42,3465	     2173,15	-4,1	     2143,57	-4,9
     42,3485	     2166,44	-4,3	     2142,86	-4,7
     42,3504	      2163,8	-3,9	      2139,2	-4,5
     42,3524	     2165,75	-3,8	      2131,9	-4,0
     42,3544	     2162,63	-3,6	     2131,56	-3,8
     42,3563	     2159,19	-3,5	     2131,44	-2,9
     42,3583	      2156,7	-2,9	     2127,64	-3,0
     42,3602	     2153,84	-2,8	     2124,33	-3,1
     42,3622	     2148,68	-2,8	     2123,17	-2,8
     42,3641	     2146,55	-3,0	     2117,37	-1,9
     42,3661	     2145,29	-1,2	     2113,69	-2,1
      42,368	     2142,77	-1,6	     2114,48	-2,0
       42,37	     2134,77	-1,2	     2113,36	-1,8
     42,3719	     2132,98	-1,4	     2106,54	-1,9
     42,3739	     2134,37	-1,1	     2103,98	-1,5
     42,3759	     2131,77	-1,0	     2105,14	-1,2
     42,3778	      2124,6	-0,5	     2101,95	-0,6
     42,3798	     2124,18	 0,1	     2096,17	-1,1
     42,3817	     2121,55	-0,7	     2093,67	-1,3
     42,3837	     2116,24	-0,3	     2095,17	-0,6
     42,3856	     2115,08	-0,1	     2091,09	-0,1
     42,3876	     2115,16	 0,6	     2086,12	-0,6
     42,3895	     2108,82	 0,0	     2084,25	-0,2
     42,3915	     2105,19	 0,2	      2082,1	 0,8
     42,3935	     2103,18	 0,7	     2079,31	 0,6
     42,3954	     2101,21	 0,8	     2077,44	 0,7
     42,3974	     2096,91	 1,1	     2075,82	 1,0
     42,3993	     2089,62	 1,5	      2069,9	 1,5
     42,4013	     2089,63	 1,8	     2066,67	 1,4
     42,4032	     2085,45	 1,5	      2066,2	 1,7
     42,4052	     2082,26	 1,6	     2063,99	 2,1
     42,4071	     2080,35	 2,6	     2056,79	 2,2
     42,4091	     2077,81	 2,7	     2054,28	 2,0
      42,411	     2071,14	 2,5	     2053,02	 2,2
      42,413	     2067,48	 2,6	     2052,11	 2,9
      42,415	      2069,4	 3,3	     2047,02	 2,8
     42,4169	     2064,63	 3,2	     2044,96	 2,5
     42,4189	     2059,15	 3,0	     2044,76	 3,0
     42,4208	     2058,17	 3,4	     2040,59	 3,4
     42,4228	     2058,85	 3,4	     2033,94	 3,2
     42,4247	     2056,84	 3,8	     2034,56	 3,2
     42,4267	     2048,79	 3,8	     2032,84	 3,4
     42,4286	     2046,42	 4,7	     2026,01	 3,8
     42,4306	     2043,81	 4,0	     2021,99	 3,9
     42,4326	     2039,15	 3,9	     2021,47	 4,0
     42,4345	     2034,72	 4,8	      2021,9	 4,9
     42,4365	     2033,71	 4,9	     2017,36	 4,7
     42,4384	     2033,18	 5,4	     2011,04	 4,2
     42,4404	     2025,77	 5,0	        2010	 5,6
     42,4423	      2021,6	 5,2	     2006,74	 5,7
     42,4443	     2022,01	 5,7	     1999,94	 5,5
     42,4462	     2019,33	 5,8	      1996,9	 5,6
     42,4482	      2010,2	 5,9	     1997,83	 6,2
     42,4501	     2006,28	 5,8	     1995,61	 6,5
     42,4521	     2006,93	 6,5	     1989,76	 5,9
     42,4541	     1998,65	 5,9	     1988,79	 6,3
      42,456	     1995,57	 6,5	     1984,95	 6,6
      42,458	     1992,81	 7,1	     1981,84	 6,8
     42,4599	     1992,71	 7,0	     1977,19	 7,0
     42,4619	     1990,25	 7,0	     1978,66	 6,8
     42,4638	     1984,13	 7,5	      1975,4	 7,3
     42,4658	     1982,93	 7,7	     1969,95	 7,4
     42,4677	     1982,29	 7,4	     1964,66	 7,3
     42,4697	     1976,28	 7,7	     1966,11	 7,4
     42,4717	     1972,78	 7,9	     1963,12	 7,7
     42,4736	     1970,15	 8,7	     1956,42	 7,7
     42,4756	     1966,74	 7,8	     1952,18	 8,0
     42,4775	     1962,16	 7,9	     1953,22	 8,2
     42,4795	     1961,54	 8,7	     1951,05	 8,6
     42,4814	     1959,66	 8,7	     1941,83	 8,6
     42,4834	     1955,23	 8,9	      1940,9	 8,0
     42,4853	     1947,54	 8,4	     1941,11	 9,3
     42,4873	     1947,23	 9,3	     1937,33	 9,1
     42,4892	     1945,06	 9,3	      1930,4	 9,2
     42,4912	     1943,71	 9,1	     1929,84	 9,0
     42,4932	     1934,38	 9,3	     1929,19	10,0
     42,4951	     1933,32	 9,8	     1925,13	10,2
     42,4971	     1931,66	 9,8	     1919,79	 9,7
      42,499	     1928,47	10,0	     1917,38	10,2
      42,501	      1920,8	11,1	      1915,8	 9,9
     42,5029	     1918,21	10,7	     1908,86	10,8
     42,5049	     1915,43	10,7	      1906,8	10,9
     42,5068	      1912,2	10,9	     1905,38	10,7
     42,5088	     1907,34	11,6	     1904,39	11,0
     42,5108	     1904,97	11,4	     1895,14	11,4
     42,5127	     1900,73	11,5	     1894,71	10,8
     42,5147	     1898,29	11,5	      1892,1	11,5
     42,5166	     1895,17	11,6	        1892	11,7
     42,5186	     1894,24	12,0	      1884,2	11,9
     42,5205	     1892,19	12,2	     1881,23	11,9
     42,5225	     1884,59	12,2	     1881,85	12,0
     42,5244	     1880,38	12,4	     1878,08	12,1
     42,5264	     1881,12	12,3	     1870,17	12,1
     42,5283	     1878,59	12,8	     1865,66	12,3
     42,5303	     1870,97	12,3	     1867,63	12,5
     42,5323	     1868,61	12,9	     1865,36	12,8
     42,5342	     1869,35	12,8	     1858,21	12,7
     42,5362	     1865,43	13,2	     1852,94	12,9
     42,5381	     1859,71	13,4	     1855,79	13,1
     42,5401	     1856,47	13,5	     1852,51	13,0
      42,542	     1853,92	13,7	     1844,83	13,1
      42,544	     1851,79	13,5	     1843,01	13,6
     42,5459	      1844,1	13,8	     1844,25	13,7
     42,5479	     1841,38	14,0	     1840,24	13,8
     42,5499	     1840,95	14,3	     1830,26	13,5
     42,5518	     1838,18	13,9	     1827,25	13,7
     42,5538	     1830,61	14,3	      1829,7	14,2
     42,5557	     1827,93	14,6	     1827,89	14,1
     42,5577	     1824,98	14,9	     1819,14	14,6
     42,5596	     1823,65	14,1	     1816,44	14,7
     42,5616	     1820,71	14,5	     1817,02	15,0
     42,5635	     1815,58	15,1	     1809,03	15,2
     42,5655	     1814,07	15,4	     1807,29	15,4
     42,5674	     1810,69	15,6	     1805,63	15,2
     42,5694	     1801,82	15,7	     1804,09	15,3
     42,5714	     1801,57	15,8	     1802,57	15,4
     42,5733	     1800,24	15,8	     1794,07	16,1
     42,5753	     1798,29	16,0	     1790,53	15,7
     42,5772	     1794,64	15,7	     1789,94	16,1
     42,5792	     1788,74	16,8	     1789,03	16,3
     42,5811	     1785,88	16,8	      1780,1	16,3
     42,5831	     1782,61	16,8	     1777,45	16,2
      42,585	     1779,54	16,4	     1777,45	16,7
      42,587	     1775,88	17,1	     1775,65	16,7
      42,589	     1772,33	17,4	     1768,44	17,3
     42,5909	     1769,27	17,4	     1764,05	16,9
     42,5929	     1765,59	17,3	     1764,05	17,4
     42,5948	     1760,59	17,9	     1762,05	17,2
     42,5968	     1757,86	17,7	     1754,62	17,6
     42,5987	     1755,23	17,7	     1750,82	18,1
     42,6007	     1751,44	18,1	     1750,62	17,7
     42,6026	      1746,3	18,3	     1748,88	18,1
     42,6046	     1742,86	18,6	     1741,64	18,2
     42,6065	     1740,42	18,4	     1738,59	18,3
     42,6085	     1735,58	18,5	     1739,35	17,9
     42,6105	     1732,59	18,6	     1736,97	18,5
     42,6124	      1730,5	19,0	     1731,09	18,8
     42,6144	     1729,34	18,6	     1728,61	18,8
     42,6163	     1725,49	18,5	     1725,45	18,4
     42,6183	     1721,92	19,0	     1723,36	18,7
     42,6202	     1717,17	19,5	      1715,8	19,0
     42,6222	     1716,09	19,5	     1711,74	18,9
     42,6241	      1712,7	19,3	     1711,41	19,1
     42,6261	     1707,83	19,5	      1709,7	19,2
     42,6281	     1705,23	20,1	     1707,54	19,7
       42,63	     1701,47	20,5	     1700,11	19,7
      42,632	     1697,14	19,8	     1699,24	19,4
     42,6339	     1694,08	20,0	     1695,68	19,6
     42,6359	     1692,09	20,3	     1694,42	20,0
     42,6378	      1690,1	20,7	     1687,08	20,0
     42,6398	     1687,51	20,9	     1683,58	20,1
     42,6417	     1679,77	20,7	     1685,02	20,1
     42,6437	     1675,91	20,7	     1682,46	20,5
     42,6456	     1673,59	21,1	     1676,16	20,2
     42,6476	     1672,43	20,6	     1673,16	20,9
     42,6496	      1668,5	21,1	     1673,01	20,3
     42,6515	     1664,13	21,2	     1669,92	20,8
     42,6535	     1661,64	21,7	     1665,13	21,3
     42,6554	     1661,01	21,3	      1658,3	20,9
     42,6574	      1656,7	21,5	     1654,73	20,8
     42,6593	     1650,12	21,6	     1654,44	21,8
     42,6613	     1648,77	22,0	      1650,6	21,6
     42,6632	      1646,4	22,3	     1646,04	21,9
     42,6652	     1643,95	22,0	     1643,07	21,0
     42,6672	     1639,11	22,3	     1641,14	21,6
     42,6691	      1632,2	22,3	     1638,31	21,8
     42,6711	     1629,32	22,8	     1635,61	22,3
      42,673	     1630,77	22,7	     1630,73	21,8
      42,675	     1627,69	22,7	     1629,52	22,1
     42,6769	     1621,46	22,6	     1628,65	22,5
     42,6789	     1617,47	23,0	     1624,14	22,8
     42,6808	     1618,13	23,2	     1619,06	22,7
     42,6828	     1614,79	23,0	     1614,84	22,3
     42,6847	     1607,22	22,7	      1611,9	22,7
     42,6867	      1604,4	23,4	     1609,02	23,1
     42,6887	     1606,07	23,6	     1605,68	23,0
     42,6906	     1601,68	23,8	     1600,61	22,9
     42,6926	     1594,39	23,4	     1597,76	23,0
     42,6945	     1591,01	23,6	     1598,63	23,7
     42,6965	     1591,17	24,0	      1596,3	23,8
     42,6984	     1587,08	24,4	     1589,06	23,3
     42,7004	     1581,35	23,8	      1585,8	23,5
     42,7023	     1577,84	24,1	     1586,99	24,4
     42,7043	     1575,92	24,1	     1582,55	24,2
     42,7063	     1576,74	24,3	     1573,29	24,0
     42,7082	     1571,63	24,3	     1571,51	23,8
     42,7102	     1568,18	24,5	     1572,34	24,4
     42,7121	     1563,92	24,7	     1569,02	24,6
     42,7141	     1562,62	25,1	     1561,27	24,2
      42,716	      1559,3	24,9	      1558,1	24,4
      42,718	     1556,07	25,2	     1558,95	25,0
     42,7199	     1549,84	25,1	     1556,87	25,1
     42,7219	     1546,98	25,5	     1554,22	25,4
     42,7239	     1545,84	25,6	     1546,82	25,0
     42,7258	     1544,81	25,5	     1543,69	24,8
     42,7278	     1540,65	25,9	     1543,11	25,1
     42,7297	     1535,36	26,0	        1540	25,2
     42,7317	     1531,57	25,8	     1533,88	25,6
     42,7336	     1533,77	26,3	     1529,72	25,8
     42,7356	     1530,42	26,4	     1530,68	25,7
     42,7375	     1522,15	26,1	     1526,95	25,8
     42,7395	     1517,99	26,5	     1521,17	26,2
     42,7414	     1519,81	26,9	     1518,08	26,1
     42,7434	     1517,87	27,0	     1515,81	25,6
     42,7454	     1510,42	26,4	     1513,58	26,3
     42,7473	     1505,41	26,8	     1510,33	26,7
     42,7493	     1506,99	27,3	     1506,27	26,9
     42,7512	     1505,45	27,4	     1501,63	26,3
     42,7532	     1501,02	27,1	     1498,95	26,7
     42,7551	     1497,14	27,2	     1500,38	27,1
     42,7571	     1493,23	27,7	      1496,9	27,1
      42,759	      1489,4	27,8	     1491,06	27,0
      42,761	        1490	28,0	     1488,46	27,4
      42,763	      1485,6	28,0	     1486,04	27,0
     42,7649	        1478	27,6	     1483,51	27,4
     42,7669	     1474,16	28,2	     1479,58	28,0
     42,7688	     1476,77	28,4	      1476,9	27,9
     42,7708	     1473,77	28,4	     1470,43	27,8
     42,7727	     1465,66	28,0	      1469,3	27,6
     42,7747	     1462,07	28,3	     1468,09	28,5
     42,7766	     1463,05	28,9	     1465,62	28,4
     42,7786	     1459,44	28,9	     1459,46	28,3
     42,7805	     1455,22	28,6	     1456,21	28,4
     42,7825	     1450,86	28,4	     1458,13	28,7
     42,7845	     1446,79	29,1	     1454,27	28,8
     42,7864	     1443,18	29,0	     1444,99	28,6
     42,7884	     1443,56	29,2	     1442,71	28,6
     42,7903	     1442,09	28,9	     1445,37	29,2
     42,7923	     1434,47	29,1	     1443,43	29,1
     42,7942	     1431,88	29,3	     1435,45	29,2
     42,7962	     1428,68	29,2	     1431,66	28,9
     42,7981	     1428,95	29,3	     1429,84	29,3
     42,8001	     1427,17	29,4	     1427,48	29,4
     42,8021	     1420,51	29,3	     1423,91	29,5
      42,804	     1418,22	29,4	     1420,63	29,9
      42,806	     1419,44	30,0	      1416,4	29,9
     42,8079	     1417,53	29,8	     1414,04	29,6
     42,8099	     1409,28	29,9	     1414,64	30,1
     42,8118	     1405,62	29,9	     1412,53	30,1
     42,8138	     1404,72	30,3	     1410,52	30,0
     42,8157	     1403,28	30,1	     1401,68	30,1
     42,8177	     1398,73	29,9	     1399,82	29,8
     42,8196	     1396,92	29,9	     1400,88	30,5
     42,8216	     1392,37	30,7	     1397,94	30,1
     42,8236	     1391,12	30,7	     1391,52	30,6
     42,8255	     1389,79	30,7	     1388,21	30,5
     42,8275	      1387,1	30,6	     1386,34	30,0
     42,8294	     1379,62	30,6	     1384,37	31,0
     42,8314	     1378,14	30,7	     1381,25	31,2
     42,8333	     1375,38	31,2	     1374,46	30,9
     42,8353	     1376,05	31,2	     1372,08	30,6
     42,8372	     1372,63	31,5	      1370,4	30,7
     42,8392	     1365,95	31,1	     1371,22	31,0
     42,8412	     1362,31	31,4	     1368,55	31,5
     42,8431	     1361,68	31,7	     1361,25	31,0
     42,8451	     1359,75	32,0	     1357,06	31,2
      42,847	     1357,17	31,4	     1356,48	31,1
      42,849	     1354,18	32,0	     1353,73	31,4
     42,8509	     1349,59	32,2	     1351,24	31,8
     42,8529	     1347,74	32,0	     1344,92	31,6
     42,8548	      1347,8	32,5	     1342,14	31,3
     42,8568	     1343,96	32,4	     1342,71	32,0
     42,8587	     1336,23	32,2	     1341,52	32,1
     42,8607	     1332,88	32,1	     1337,38	32,4
     42,8627	     1333,38	32,6	     1330,66	32,0
     42,8646	     1330,14	32,8	      1327,1	32,2
     42,8666	     1325,21	32,7	     1327,79	32,5
     42,8685	     1322,09	32,9	     1325,95	32,7
     42,8705	     1320,24	32,4	     1321,12	32,7
     42,8724	     1318,19	33,0	     1317,96	32,9
     42,8744	     1316,67	33,1	     1313,04	32,6
     42,8763	     1315,93	32,9	     1312,07	32,7
     42,8783	     1313,39	33,0	     1313,06	33,1
     42,8803	     1305,63	33,3	     1310,66	33,4
     42,8822	     1306,98	33,6	     1300,54	33,3
     42,8842	     1304,67	33,5	     1297,54	33,1
     42,8861	     1299,78	33,2	     1299,51	33,4
     42,8881	     1298,01	33,3	     1298,04	33,5
       42,89	     1292,24	33,8	     1291,14	33,6
      42,892	      1291,8	33,8	     1288,82	33,5
     42,8939	      1289,1	33,7	     1284,56	33,7
     42,8959	      1288,1	33,7	     1284,29	33,3
     42,8979	     1284,28	34,0	     1283,98	33,6
     42,8998	      1275,8	33,5	     1280,88	33,9
     42,9018	     1274,22	34,2	      1272,9	33,7
     42,9037	     1275,97	34,3	     1272,01	33,7
     42,9057	     1275,57	34,4	     1271,28	33,8
     42,9076	     1270,26	34,3	     1268,45	33,8
     42,9096	     1267,25	34,4	     1265,52	34,3
     42,9115	     1262,91	34,5	     1262,58	34,2
     42,9135	     1261,02	35,1	     1255,94	34,1
     42,9154	     1261,51	35,0	     1255,01	34,0
     42,9174	      1258,6	34,9	      1258,7	34,8
     42,9194	     1250,47	34,9	     1254,54	35,0
     42,9213	     1247,08	35,1	      1247,6	34,9
     42,9233	     1248,38	35,6	     1246,38	35,1
     42,9252	     1244,47	35,1	     1240,84	35,0
     42,9272	     1242,07	35,5	     1239,06	35,1
     42,9291	     1240,71	35,0	     1239,49	35,1
     42,9311	     1233,96	35,3	      1237,4	35,5
      42,933	     1231,69	35,1	     1230,88	35,4
      42,935	      1232,7	35,5	     1229,64	35,3
      42,937	     1232,17	35,6	     1226,81	35,4
     42,9389	     1224,44	35,3	     1226,84	35,5
     42,9409	     1222,59	35,3	     1223,94	35,7
     42,9428	      1218,9	35,8	     1221,49	35,6
     42,9448	     1218,87	35,7	     1213,12	35,8
     42,9467	     1217,64	35,7	     1211,39	35,5
     42,9487	      1216,8	35,9	     1213,93	35,6
     42,9506	     1208,68	35,6	      1211,5	35,6
     42,9526	     1206,38	36,2	     1207,86	35,9
     42,9545	     1206,88	36,5	     1204,49	36,1
     42,9565	      1204,6	36,7	     1199,04	35,7
     42,9585	     1202,09	36,4	     1194,31	35,9
     42,9604	     1199,27	36,6	      1197,2	35,7
     42,9624	     1191,48	36,6	     1193,41	36,3
     42,9643	     1187,12	36,6	     1188,09	36,5
     42,9663	     1185,93	36,7	      1185,4	36,9
     42,9682	     1189,87	37,0	      1183,9	36,4
     42,9702	     1184,29	37,0	     1181,46	36,6
     42,9721	     1182,19	36,7	     1183,76	37,0
     42,9741	     1175,56	37,1	     1183,22	37,4
     42,9761	     1173,26	37,1	     1174,03	37,0
      42,978	        1175	37,6	     1170,66	37,0
       42,98	     1173,44	37,3	     1169,13	37,1
     42,9819	     1166,97	36,9	      1166,6	36,8
     42,9839	     1164,86	36,9	     1165,47	36,8
     42,9858	     1163,13	37,4	     1162,78	37,3
     42,9878	     1159,76	37,5	     1162,16	37,3
     42,9897	     1159,65	37,9	     1156,76	37,1
     42,9917	     1158,42	37,4	     1154,67	37,2
     42,9936	     1156,71	37,9	     1156,61	37,0
     42,9956	     1150,47	37,8	     1151,75	37,3
     42,9976	     1148,44	37,9	      1148,2	37,3
     42,9995	     1147,91	38,3	     1141,71	37,3
     43,0015	     1144,72	38,4	     1139,38	37,7
     43,0034	     1142,93	38,4	     1141,72	37,7
     43,0054	     1140,14	38,2	     1140,41	37,9
     43,0073	     1134,27	38,6	     1135,93	37,9
     43,0093	     1130,51	38,4	     1134,41	38,1
     43,0112	     1133,66	38,8	     1132,46	38,4
     43,0132	     1130,87	38,6	     1125,18	38,1
     43,0152	     1127,02	38,4	     1122,98	37,7
     43,0171	     1124,39	38,0	     1125,44	38,8
     43,0191	     1121,95	38,2	     1123,49	38,4
      43,021	     1117,58	38,5	     1117,53	38,7
      43,023	     1115,55	38,6	     1114,86	38,1
     43,0249	     1117,68	38,8	     1112,14	38,2
     43,0269	     1115,87	38,8	     1109,57	38,1
     43,0288	     1107,22	38,4	     1111,03	38,5
     43,0308	     1105,02	39,1	     1107,69	38,9
     43,0327	     1102,74	39,1	     1100,95	38,7
     43,0347	     1099,08	39,4	     1097,81	38,8
     43,0367	     1101,13	39,4	      1096,1	38,6
     43,0386	     1099,14	39,5	     1095,19	39,0
     43,0406	     1092,56	39,5	     1096,77	39,3
     43,0425	     1089,06	39,4	     1095,83	39,4
     43,0445	     1087,82	38,8	     1088,16	39,6
     43,0464	     1087,46	39,5	     1087,63	39,3
     43,0484	     1086,31	39,6	     1084,45	39,2
     43,0503	     1086,25	39,4	     1082,13	39,3
     43,0523	     1080,39	39,5	     1079,59	39,1
     43,0543	     1078,32	39,9	     1081,07	39,6
     43,0562	     1075,83	39,8	     1079,01	39,3
     43,0582	     1073,11	40,1	      1072,3	39,4
     43,0601	     1071,69	39,9	      1069,9	39,5
     43,0621	     1070,49	40,3	     1068,38	39,1
      43,064	     1063,97	40,0	      1065,7	39,7
      43,066	     1060,92	39,9	     1065,66	40,1
     43,0679	     1060,98	40,3	     1058,74	39,9
     43,0699	     1060,63	40,7	     1057,53	40,3
     43,0718	     1058,16	40,3	     1054,85	40,2
     43,0738	     1056,42	40,7	     1053,69	40,0
     43,0758	     1055,75	40,5	     1053,87	39,9
     43,0777	     1048,02	40,6	     1054,07	40,4
     43,0797	     1048,05	40,1	     1051,35	40,0
     43,0816	     1046,27	40,5	     1043,46	40,5
     43,0836	     1046,98	40,7	     1042,18	40,4
     43,0855	     1043,02	40,6	     1041,75	40,1
     43,0875	     1041,82	40,8	     1039,05	40,1
     43,0894	     1036,79	40,4	      1039,9	40,4
     43,0914	     1033,83	41,1	     1036,96	40,6
     43,0934	     1033,02	41,1	     1031,76	40,6
     43,0953	     1029,94	41,4	     1030,46	41,0
     43,0973	     1032,19	41,3	     1025,39	40,6
     43,0992	     1030,74	41,2	     1024,55	40,4
     43,1012	      1023,7	41,2	     1023,79	41,1
     43,1031	     1021,89	41,1	     1022,55	41,2
     43,1051	     1016,85	41,0	      1017,1	41,5
      43,107	     1014,55	41,1	     1016,07	41,3
      43,109	     1017,72	41,3	     1014,04	41,2
     43,1109	     1016,32	41,6	     1013,17	40,8
     43,1129	     1010,92	41,0	     1014,28	41,0
     43,1149	     1009,98	41,4	     1011,26	41,3
     43,1168	     1006,51	41,5	     1007,15	41,1
     43,1188	      1004,1	41,9	     1002,86	41,3
     43,1207	     1005,81	42,2	     1000,53	41,7
     43,1227	     1002,64	42,0	     996,368	41,3
     43,1246	     999,218	41,8	     995,806	41,8
     43,1266	      997,36	41,9	     997,999	41,7
     43,1285	     989,933	42,0	     996,585	41,5
     43,1305	     989,011	41,7	     991,301	42,0
     43,1325	     990,946	42,2	     991,563	41,8
     43,1344	     990,108	42,1	     986,898	41,9
     43,1364	     987,824	42,0	     984,807	41,6
     43,1383	     986,968	42,1	      987,12	41,5
     43,1403	     984,788	42,4	     984,881	41,8
     43,1422	     976,243	42,4	     978,452	42,0
     43,1442	     975,576	42,5	     976,068	42,1
     43,1461	     977,133	42,7	     971,323	41,8
     43,1481	     974,466	42,7	     969,598	42,6
       43,15	     974,088	42,7	     971,336	42,3
      43,152	      972,41	42,6	      970,66	42,6
      43,154	     965,103	42,6	     967,909	42,8
     43,1559	     962,493	42,6	      968,89	42,7
     43,1579	     962,326	42,5	     959,794	42,6
     43,1598	     960,751	42,6	     956,801	42,3
     43,1618	     963,099	42,4	     956,701	42,4
     43,1637	     961,275	42,8	     958,419	42,5
     43,1657	      954,67	42,6	     956,406	42,1
     43,1676	     953,772	43,2	     956,763	42,5
     43,1696	     950,124	43,1	     954,875	42,7
     43,1716	     947,996	43,6	     946,761	42,9
     43,1735	     950,397	43,8	     943,931	43,0
     43,1755	     946,703	43,5	     941,336	43,0
     43,1774	     942,283	43,4	     942,408	43,0
     43,1794	     940,966	43,2	     944,215	43,4
     43,1813	     935,021	43,4	     943,375	43,0
     43,1833	     934,248	43,1	     937,103	43,1
     43,1852	     935,589	43,3	     936,296	43,5
     43,1872	     935,391	43,3	     931,811	42,9
     43,1891	     934,829	43,6	     929,176	43,2
     43,1911	     934,103	43,9	     931,405	42,9
     43,1931	     930,581	43,8	     927,353	43,3
      43,195	     923,728	44,1	     927,389	43,4
      43,197	     920,528	43,8	     926,504	43,6
     43,1989	     919,847	44,1	     918,878	43,6
     43,2009	     918,342	44,3	      918,36	44,0
     43,2028	      920,78	44,1	     918,598	43,6
     43,2048	     920,408	43,4	     916,584	43,5
     43,2067	     915,101	43,5	     918,247	43,5
     43,2087	     914,038	43,9	     916,218	43,5
     43,2107	     907,852	43,8	      909,53	43,8
     43,2126	     906,944	44,4	     908,988	44,0
     43,2146	     910,533	44,4	     904,726	43,7
     43,2165	      907,17	44,6	     901,906	43,5
     43,2185	      904,04	44,6	     902,253	43,8
     43,2204	     902,605	44,5	     900,635	44,1
     43,2224	      896,65	44,3	     899,479	44,6
     43,2243	     895,233	44,1	     899,481	44,5
     43,2263	     893,201	44,6	     893,853	44,4
     43,2282	     892,693	44,4	     893,258	44,3
     43,2302	     894,021	44,4	     892,718	44,3
     43,2322	     892,962	44,5	     890,139	44,1
     43,2341	     887,059	44,3	     891,374	44,3
     43,2361	     889,082	44,4	     887,528	44,1
      43,238	     884,522	44,9	     885,389	44,3
       43,24	     882,274	44,9	     884,968	44,8
     43,2419	     879,783	44,9	     879,152	45,0
     43,2439	     880,262	45,0	     879,099	44,7
     43,2458	     877,868	44,9	     878,033	44,6
     43,2478	     875,639	44,9	     874,981	44,2
     43,2498	     876,472	44,3	      876,99	44,8
     43,2517	     870,529	44,4	     875,408	44,6
     43,2537	     869,093	44,8	     870,992	44,6
     43,2556	     870,288	45,2	     868,741	44,7
     43,2576	     867,015	45,7	     863,927	44,5
     43,2595	      868,32	45,6	      861,16	44,6
     43,2615	     865,699	45,5	     863,834	44,7
     43,2634	     864,395	45,1	     862,464	44,9
     43,2654	     858,849	45,3	     861,508	45,2
     43,2673	     858,214	44,9	     860,558	45,2
     43,2693	     853,744	45,4	     855,011	45,3
     43,2713	      853,09	45,4	     853,963	45,2
     43,2732	     856,235	45,5	     852,836	45,1
     43,2752	      853,57	45,5	     850,509	44,8
     43,2771	     852,206	45,3	     849,034	45,1
     43,2791	      851,17	45,7	     850,245	45,1
      43,281	      844,84	45,7	     847,599	45,4
      43,283	     842,868	45,4	     845,966	45,3
     43,2849	     842,576	46,0	     838,263	45,5
     43,2869	     840,983	46,0	     838,943	45,9
     43,2889	     838,887	45,6	     837,113	45,6
     43,2908	     840,754	45,5	     835,751	45,5
     43,2928	     841,058	45,9	     839,391	45,5
     43,2947	     836,063	45,6	     835,528	45,2
     43,2967	     834,375	46,1	       834,7	45,6
     43,2986	     828,363	46,1	     833,044	45,7
     43,3006	     826,296	46,2	     831,005	46,1
     43,3025	     828,697	46,6	     825,078	46,4
     43,3045	     827,909	46,3	     825,945	46,1
     43,3064	     826,437	46,3	     822,953	45,9
     43,3084	     825,771	46,1	     821,778	46,0
     43,3104	     818,912	45,8	     826,267	45,8
     43,3123	     820,055	46,0	     822,611	45,5
     43,3143	     817,005	46,1	     819,244	45,9
     43,3162	     814,952	46,7	     812,247	45,9
     43,3182	     811,943	46,8	     812,827	46,6
     43,3201	     816,754	46,7	     810,269	46,2
     43,3221	     813,666	46,8	     809,213	46,2
      43,324	     811,982	46,8	     811,897	46,5
      43,326	     810,851	46,1	     810,113	46,3
      43,328	     805,673	46,0	     810,164	46,6
     43,3299	     806,053	46,3	     808,911	46,0
     43,3319	     802,445	46,5	     805,735	46,0
     43,3338	     799,815	46,9	     800,646	46,6
     43,3358	     802,769	46,8	     797,153	46,3
     43,3377	     801,821	47,0	     795,288	46,7
     43,3397	     801,267	47,2	     796,619	46,5
     43,3416	     798,991	46,9	     795,679	46,7
     43,3436	     790,765	47,0	     798,283	46,9
     43,3456	     788,619	46,8	     796,759	46,5
     43,3475	     788,667	46,7	     792,521	46,7
     43,3495	     788,462	46,8	     791,938	46,5
     43,3514	      791,23	47,2	     785,754	46,3
     43,3534	     787,877	47,5	     783,959	46,7
     43,3553	     787,767	46,9	     781,785	46,8
     43,3573	       786,1	47,2	     781,238	46,8
     43,3592	     781,499	46,9	     783,537	47,0
     43,3612	     782,262	47,1	     782,372	46,6
     43,3631	     777,226	47,0	     782,395	47,0
     43,3651	     776,111	47,1	     781,142	46,7
     43,3671	     774,804	47,5	     775,734	47,0
      43,369	     776,636	47,6	     774,693	47,3
      43,371	     772,425	47,6	     769,682	46,8
     43,3729	     774,146	48,0	     768,154	47,3
     43,3749	     771,931	47,5	     768,431	47,1
     43,3768	     767,947	47,1	     767,171	47,3
     43,3788	     768,518	47,3	     771,455	47,4
     43,3807	     762,266	47,3	     770,842	46,7
     43,3827	     762,837	47,0	     766,902	47,2
     43,3847	     765,904	47,7	     763,013	47,4
     43,3866	     762,352	48,0	     757,682	47,3
     43,3886	     763,044	47,9	     755,972	47,9
     43,3905	     759,406	47,9	     756,802	47,2
     43,3925	     756,114	47,5	     756,367	47,5
     43,3944	     757,179	47,4	     759,998	47,4
     43,3964	     750,663	47,5	      756,97	46,7
     43,3983	     750,185	47,7	     755,139	47,6
     43,4003	     748,748	47,7	     754,284	47,7
     43,4022	     746,766	48,1	     748,811	47,5
     43,4042	     750,668	48,0	     748,351	48,1
     43,4062	     748,405	48,2	     745,401	48,0
     43,4081	     749,867	48,3	     744,175	47,9
     43,4101	     745,744	48,0	     743,854	48,2
      43,412	     740,404	47,7	     742,893	48,0
      43,414	     742,296	47,7	     746,418	47,7
     43,4159	      738,17	48,1	     745,106	47,5
     43,4179	      737,29	48,2	       738,8	47,8
     43,4198	     738,039	48,1	     737,448	48,2
     43,4218	     734,328	48,7	     731,668	47,9
     43,4238	     736,808	48,3	      731,53	48,4
     43,4257	     734,866	48,3	     732,193	48,3
     43,4277	     735,516	48,2	     732,734	48,2
     43,4296	     734,025	48,1	     731,423	47,8
     43,4316	     728,993	47,9	     733,305	47,3
     43,4335	      728,86	48,0	     728,669	47,9
     43,4355	     724,291	48,5	     728,592	48,2
     43,4374	     722,971	48,5	     727,068	48,4
     43,4394	     724,232	48,9	     721,942	48,8
     43,4413	     720,759	48,9	      722,38	48,7
     43,4433	     722,119	48,5	     718,615	48,6
     43,4453	     721,724	48,5	     716,837	48,0
     43,4472	       720,1	48,3	      718,01	47,4
     43,4492	     720,397	48,7	     715,682	48,0
     43,4511	      714,56	48,6	     713,728	48,4
     43,4531	     713,974	48,5	     716,242	48,6
      43,455	     709,415	48,9	     713,143	48,8
      43,457	     708,591	48,6	     714,258	48,6
     43,4589	     709,754	48,7	     708,849	48,9
     43,4609	     709,044	48,9	     707,997	48,4
     43,4629	     710,617	48,6	     703,942	48,3
     43,4648	     710,694	48,8	     702,026	48,8
     43,4668	     709,376	48,7	     704,025	48,2
     43,4687	     707,715	49,2	     702,614	48,8
     43,4707	     700,359	49,1	     703,361	48,8
     43,4726	     698,554	48,6	     703,008	48,6
     43,4746	     697,215	49,1	     702,768	49,0
     43,4765	     696,335	48,8	     702,619	48,7
     43,4785	     698,829	48,8	     700,566	49,1
     43,4804	     696,323	49,5	     696,053	48,9
     43,4824	     694,056	49,7	      692,37	48,8
     43,4844	     696,513	49,6	     690,039	49,2
     43,4863	       695,2	49,2	     690,939	49,0
     43,4883	     693,252	48,9	     690,098	48,9
     43,4902	     694,933	48,8	     693,411	48,8
     43,4922	     688,165	48,9	     691,513	48,8
     43,4941	     688,758	49,0	     689,251	49,0
     43,4961	     682,887	49,7	     687,495	49,0
      43,498	     682,056	49,5	     687,147	49,6
        43,5	      685,27	48,8	     688,209	49,4

