X-Data [Hz]	Piezo (M - Filtered) [mV]	Phase [Deg]	Piezo (M - Filtered) [mV]	Phase [Deg]	
	002: [07-09-24 15:47]		003: [07-09-24 15:49]	
        41,5	     145,135	-103,1	     152,756	-104,4
      41,502	      143,93	-99,5	     151,852	-102,0
     41,5039	     146,324	-100,5	     151,852	-102,9
     41,5059	     150,151	-100,3	     152,946	-101,9
     41,5078	     152,929	-102,5	     153,742	-104,2
     41,5098	     152,149	-100,7	     152,587	-99,9
     41,5117	     152,372	-99,1	     152,413	-102,5
     41,5137	     154,242	-100,7	     155,135	-102,5
     41,5156	      153,03	-100,8	     156,569	-101,0
     41,5176	     152,136	-101,8	     154,668	-101,9
     41,5196	     152,677	-101,0	      153,35	-101,5
     41,5215	     155,287	-100,3	     155,077	-101,7
     41,5235	      155,61	-102,2	     154,179	-100,7
     41,5254	     156,164	-100,8	     156,248	-102,7
     41,5274	     155,193	-103,3	     156,449	-103,5
     41,5293	     155,832	-101,9	     156,854	-101,1
     41,5313	     157,085	-102,1	     155,284	-102,2
     41,5332	     158,186	-102,8	     157,419	-101,2
     41,5352	     156,399	-101,0	     157,185	-102,4
     41,5371	      156,62	-101,3	      157,18	-102,8
     41,5391	     158,516	-101,0	     156,432	-102,4
     41,5411	     156,953	-102,9	     157,169	-103,8
      41,543	     157,193	-103,0	     157,065	-100,0
      41,545	     157,598	-100,1	     157,282	-101,3
     41,5469	     158,274	-101,1	      160,09	-100,2
     41,5489	     159,173	-100,1	     159,934	-101,3
     41,5508	     159,171	-100,4	     159,679	-101,6
     41,5528	     158,732	-102,6	     159,307	-100,6
     41,5547	     159,549	-100,8	     160,234	-102,4
     41,5567	     160,288	-102,3	     160,039	-101,4
     41,5587	     160,337	-100,0	      160,79	-102,8
     41,5606	     160,857	-100,7	     161,456	-103,0
     41,5626	     161,299	-103,0	     161,053	-101,6
     41,5645	     160,306	-100,6	     161,548	-102,0
     41,5665	     161,805	-100,5	     161,737	-98,7
     41,5684	     161,615	-99,6	     162,407	-103,2
     41,5704	     162,314	-98,9	     163,739	-101,9
     41,5723	     161,939	-101,6	     163,847	-100,2
     41,5743	     162,119	-100,4	     164,024	-102,7
     41,5762	     163,433	-102,6	     163,177	-100,5
     41,5782	     162,986	-101,8	     163,587	-101,3
     41,5802	     161,808	-101,3	     164,365	-101,7
     41,5821	     163,146	-99,7	     164,564	-101,6
     41,5841	     166,027	-100,5	     164,539	-101,5
      41,586	     166,102	-101,8	     163,665	-100,2
      41,588	     165,715	-100,6	     164,491	-101,6
     41,5899	      165,02	-100,9	     165,696	-99,7
     41,5919	     164,385	-99,5	     165,235	-98,7
     41,5938	     165,643	-99,1	     166,139	-102,2
     41,5958	     166,917	-102,8	     165,977	-101,3
     41,5978	     166,067	-101,2	     167,269	-102,0
     41,5997	     166,361	-102,2	     167,794	-101,0
     41,6017	     166,681	-102,1	     168,279	-99,2
     41,6036	     166,899	-99,0	     167,782	-100,9
     41,6056	     167,608	-100,1	     168,575	-100,2
     41,6075	     167,604	-99,4	     169,084	-101,6
     41,6095	     168,785	-99,5	     168,564	-99,8
     41,6114	     168,537	-100,5	     168,965	-99,8
     41,6134	     168,327	-99,9	     168,474	-100,6
     41,6153	     167,955	-100,5	     168,942	-99,5
     41,6173	     168,834	-99,3	     169,865	-98,4
     41,6193	     169,825	-98,5	     171,325	-101,6
     41,6212	     171,115	-101,6	     170,918	-100,2
     41,6232	     172,413	-99,7	     170,945	-100,9
     41,6251	     172,466	-102,8	     170,724	-100,4
     41,6271	     170,711	-98,9	     170,401	-99,5
      41,629	     170,575	-97,6	     172,389	-100,6
      41,631	     171,457	-100,6	      173,79	-99,3
     41,6329	     172,305	-99,0	     174,069	-101,5
     41,6349	     173,772	-101,6	     172,534	-100,0
     41,6369	     173,897	-101,9	     172,701	-100,9
     41,6388	     173,649	-99,2	     173,277	-100,5
     41,6408	     173,833	-100,9	     173,904	-100,6
     41,6427	     173,214	-98,1	     175,467	-101,6
     41,6447	     174,818	-98,7	     175,149	-101,6
     41,6466	     174,865	-100,4	     174,552	-98,6
     41,6486	     175,046	-100,0	     174,549	-101,8
     41,6505	     175,415	-100,0	     175,863	-99,1
     41,6525	     175,781	-99,6	     177,601	-98,9
     41,6544	     176,359	-99,6	     177,388	-98,8
     41,6564	     176,982	-100,6	     177,785	-98,7
     41,6584	     175,429	-98,6	     177,469	-100,8
     41,6603	     176,534	-101,0	     176,808	-99,3
     41,6623	     177,518	-101,1	     178,697	-100,4
     41,6642	     176,873	-99,2	     178,863	-100,0
     41,6662	     178,297	-99,4	     178,755	-98,1
     41,6681	      177,93	-97,8	     179,444	-100,7
     41,6701	     178,254	-98,3	       179,7	-98,2
      41,672	     179,222	-99,7	     179,521	-100,0
      41,674	     179,672	-99,4	     180,511	-100,6
      41,676	     179,607	-100,5	     179,647	-98,2
     41,6779	     179,519	-98,8	     180,287	-98,1
     41,6799	     179,765	-99,2	     182,965	-100,3
     41,6818	     181,235	-99,7	     182,739	-99,4
     41,6838	     181,829	-98,5	     183,355	-100,3
     41,6857	     183,052	-100,9	     183,327	-98,9
     41,6877	     182,627	-100,5	     182,849	-98,8
     41,6896	     182,709	-99,5	     182,898	-100,8
     41,6916	     183,103	-99,8	      183,98	-98,2
     41,6936	     182,719	-97,5	     186,018	-99,6
     41,6955	      183,29	-97,5	     183,538	-97,6
     41,6975	     184,504	-100,4	      183,45	-99,1
     41,6994	     184,886	-98,7	     185,075	-98,8
     41,7014	     186,354	-101,8	     185,665	-98,5
     41,7033	     185,277	-99,7	     186,415	-98,0
     41,7053	     184,403	-97,4	       187,6	-98,5
     41,7072	     185,695	-99,7	     188,516	-99,7
     41,7092	     186,133	-97,3	     187,503	-100,5
     41,7111	     186,779	-97,5	     186,498	-98,1
     41,7131	     187,522	-100,4	     186,285	-98,9
     41,7151	     187,403	-98,0	     188,532	-99,5
      41,717	     188,361	-100,2	     189,903	-96,8
      41,719	     188,745	-98,9	       191,6	-100,1
     41,7209	     189,763	-97,7	     190,998	-99,8
     41,7229	     190,256	-99,7	      190,08	-98,9
     41,7248	     189,473	-98,7	     190,599	-100,6
     41,7268	     189,756	-98,9	     190,039	-96,8
     41,7287	      190,97	-100,0	     191,094	-97,6
     41,7307	     192,408	-98,0	     191,722	-97,9
     41,7327	     191,847	-99,2	     192,468	-98,1
     41,7346	     190,466	-98,5	      193,92	-98,9
     41,7366	     192,338	-98,6	     194,449	-99,5
     41,7385	      192,99	-98,8	     195,289	-98,0
     41,7405	     194,443	-97,2	     196,241	-99,5
     41,7424	     194,211	-98,5	     195,482	-97,9
     41,7444	     193,982	-97,8	     196,055	-98,5
     41,7463	     194,644	-97,3	     195,296	-99,0
     41,7483	     194,631	-97,5	     194,664	-99,2
     41,7502	     195,317	-97,4	     196,835	-99,1
     41,7522	     195,687	-95,9	     198,762	-97,4
     41,7542	     196,523	-98,9	      198,31	-97,8
     41,7561	     197,644	-97,2	     199,811	-97,9
     41,7581	     197,234	-98,0	     199,627	-96,4
       41,76	     196,609	-97,3	     199,118	-95,0
      41,762	     197,548	-95,5	      199,59	-98,6
     41,7639	     197,763	-98,5	     200,041	-98,1
     41,7659	     198,434	-97,5	     199,995	-98,9
     41,7678	      200,93	-97,5	     200,458	-100,3
     41,7698	     200,827	-99,6	     201,217	-96,7
     41,7718	      200,15	-98,8	     203,197	-97,8
     41,7737	     201,285	-97,1	     203,253	-96,0
     41,7757	     201,779	-98,4	     203,248	-95,1
     41,7776	     200,926	-96,4	      203,76	-98,5
     41,7796	     201,804	-94,2	     204,494	-97,5
     41,7815	     202,507	-98,7	     204,608	-98,0
     41,7835	     201,643	-96,2	     204,246	-97,8
     41,7854	     201,934	-97,1	     203,124	-95,7
     41,7874	     203,888	-97,5	     203,745	-96,3
     41,7893	     205,016	-95,4	     206,829	-96,4
     41,7913	     206,191	-97,5	     207,169	-96,6
     41,7933	     206,216	-97,8	     208,188	-99,1
     41,7952	     206,721	-96,0	     208,138	-97,0
     41,7972	     207,375	-97,7	     208,294	-97,5
     41,7991	     208,196	-96,7	     208,791	-98,0
     41,8011	      208,81	-99,3	     209,474	-95,4
      41,803	     207,747	-98,2	      211,38	-96,3
      41,805	      208,78	-95,1	     209,977	-95,9
     41,8069	     209,589	-96,7	     211,201	-97,2
     41,8089	     211,613	-96,6	     212,279	-98,7
     41,8109	     209,784	-96,2	     213,392	-96,8
     41,8128	     210,601	-97,0	     212,678	-95,7
     41,8148	      211,88	-96,2	     212,672	-96,5
     41,8167	     211,534	-96,8	     212,679	-96,3
     41,8187	     212,195	-97,8	     213,641	-95,7
     41,8206	     213,495	-96,1	     214,784	-97,0
     41,8226	     215,224	-96,2	     216,155	-95,8
     41,8245	     214,778	-97,8	     215,586	-96,8
     41,8265	     213,527	-95,9	     215,415	-97,1
     41,8284	     214,075	-95,3	     215,891	-95,6
     41,8304	     215,306	-96,3	     217,067	-96,5
     41,8324	     216,095	-95,3	     217,783	-97,0
     41,8343	     216,994	-96,3	     218,829	-95,8
     41,8363	     217,335	-97,6	     219,048	-96,1
     41,8382	     216,552	-95,1	     220,669	-96,4
     41,8402	     217,238	-96,2	     220,552	-95,2
     41,8421	     219,043	-96,1	     221,076	-98,3
     41,8441	     220,969	-94,0	      221,59	-96,6
      41,846	     221,897	-97,0	     221,809	-95,7
      41,848	     221,507	-96,9	     221,325	-95,4
       41,85	     221,906	-96,8	     223,519	-96,1
     41,8519	      222,82	-96,0	     225,638	-95,4
     41,8539	     223,309	-94,3	     225,382	-96,5
     41,8558	     223,609	-95,2	      224,65	-95,2
     41,8578	     223,585	-95,8	     224,814	-96,1
     41,8597	     222,796	-95,9	     226,216	-96,3
     41,8617	     223,395	-94,1	     227,129	-94,1
     41,8636	     227,117	-95,0	     228,435	-95,1
     41,8656	     226,326	-94,4	     228,908	-93,9
     41,8675	      226,26	-96,0	     228,617	-93,8
     41,8695	     226,937	-95,7	     229,379	-95,8
     41,8715	     228,666	-95,3	      229,89	-95,3
     41,8734	     228,829	-95,0	      229,53	-95,3
     41,8754	     228,632	-95,5	     231,106	-96,0
     41,8773	     228,463	-95,4	     232,184	-92,8
     41,8793	      230,07	-95,4	     231,843	-93,6
     41,8812	     229,603	-95,0	     233,816	-94,1
     41,8832	     230,538	-93,1	     233,831	-93,9
     41,8851	     231,148	-94,2	     234,549	-96,5
     41,8871	     232,114	-92,7	     233,611	-96,7
     41,8891	     233,319	-96,2	     233,759	-93,8
      41,891	     232,732	-95,5	     234,869	-95,2
      41,893	     233,527	-93,8	     236,728	-93,3
     41,8949	     233,804	-94,1	     237,409	-93,1
     41,8969	     235,543	-95,0	     238,676	-94,7
     41,8988	     236,313	-93,9	      240,17	-93,8
     41,9008	     238,655	-94,0	     241,165	-94,5
     41,9027	     239,475	-95,0	     242,466	-95,8
     41,9047	      238,93	-93,9	     241,343	-92,9
     41,9066	     238,734	-94,2	     241,087	-93,8
     41,9086	     238,535	-93,5	     242,918	-93,2
     41,9106	     239,585	-93,5	     243,735	-92,3
     41,9125	     239,852	-93,9	      243,74	-93,4
     41,9145	     240,355	-94,4	     244,861	-94,1
     41,9164	     242,443	-93,3	     244,775	-93,6
     41,9184	     243,442	-94,5	     245,507	-94,5
     41,9203	     244,649	-91,6	     246,152	-94,9
     41,9223	     245,966	-92,0	     246,425	-93,5
     41,9242	     245,822	-94,4	      247,14	-93,0
     41,9262	     246,137	-92,7	     246,879	-93,0
     41,9282	     246,536	-93,3	     247,434	-92,0
     41,9301	     247,894	-95,1	     249,474	-94,1
     41,9321	     248,594	-94,3	     250,341	-93,5
      41,934	     248,939	-93,0	     252,788	-93,7
      41,936	     249,405	-94,6	     254,467	-93,7
     41,9379	     249,266	-91,5	     254,841	-92,6
     41,9399	     249,042	-90,3	     253,761	-92,0
     41,9418	     250,005	-92,8	     254,511	-94,3
     41,9438	     251,763	-91,4	     255,949	-92,7
     41,9457	     252,713	-93,7	     256,887	-91,4
     41,9477	     254,334	-93,9	     256,549	-92,8
     41,9497	     253,955	-92,0	     257,164	-91,0
     41,9516	     254,308	-93,2	     257,092	-91,4
     41,9536	      255,63	-90,9	     259,656	-95,2
     41,9555	     257,215	-91,0	     260,522	-93,0
     41,9575	      258,12	-92,0	     261,502	-92,2
     41,9594	     258,469	-92,7	     263,176	-93,7
     41,9614	     258,318	-91,8	     263,572	-91,1
     41,9633	      258,81	-92,1	      263,48	-90,6
     41,9653	     260,689	-91,6	     263,873	-92,6
     41,9673	     260,849	-91,6	     264,539	-91,2
     41,9692	     261,951	-90,7	     266,466	-91,8
     41,9712	     263,886	-91,9	     267,922	-92,6
     41,9731	     265,357	-91,6	     268,266	-91,8
     41,9751	      265,75	-91,9	     268,536	-91,0
      41,977	     265,801	-92,5	     270,371	-93,2
      41,979	     265,934	-89,5	     270,358	-92,4
     41,9809	     266,875	-89,7	     270,947	-90,8
     41,9829	     267,122	-92,1	      272,08	-92,1
     41,9848	     269,435	-90,6	      273,48	-89,3
     41,9868	     269,752	-91,2	     274,142	-89,6
     41,9888	     270,925	-90,1	     276,773	-92,2
     41,9907	     270,965	-90,0	     276,849	-90,6
     41,9927	     272,226	-90,9	      276,89	-92,4
     41,9946	     272,868	-91,6	     277,941	-92,1
     41,9966	     273,408	-88,0	     278,572	-89,8
     41,9985	     274,027	-89,8	     278,102	-89,5
     42,0005	      275,59	-90,7	     279,462	-91,4
     42,0024	     277,421	-88,9	     280,548	-90,3
     42,0044	     278,966	-89,3	     281,879	-89,5
     42,0064	     279,345	-91,5	     282,973	-90,8
     42,0083	     280,141	-90,4	     285,093	-88,4
     42,0103	     280,511	-90,3	     285,925	-89,4
     42,0122	     280,745	-91,2	     287,762	-91,6
     42,0142	     282,983	-87,8	     288,564	-90,2
     42,0161	     284,451	-88,3	     287,467	-88,5
     42,0181	     284,454	-89,8	      288,46	-91,5
       42,02	     285,028	-88,5	     289,309	-90,7
      42,022	     285,669	-90,0	     289,887	-88,5
     42,0239	     285,643	-89,7	     290,891	-89,8
     42,0259	     287,174	-89,5	      293,34	-88,2
     42,0279	     288,179	-88,7	     294,492	-88,2
     42,0298	     289,082	-89,8	     296,487	-90,6
     42,0318	     289,056	-89,2	     295,371	-88,0
     42,0337	     290,346	-88,3	     295,415	-88,2
     42,0357	     291,288	-88,3	     295,623	-90,4
     42,0376	     292,981	-88,0	     299,676	-89,4
     42,0396	     293,948	-87,7	     302,041	-88,1
     42,0415	     295,665	-87,6	     301,946	-89,2
     42,0435	      295,39	-87,1	      302,31	-88,2
     42,0455	     296,183	-85,5	     302,463	-87,3
     42,0474	      298,31	-89,6	     304,693	-87,1
     42,0494	     297,866	-88,7	     306,911	-87,9
     42,0513	     300,006	-87,1	     307,913	-86,2
     42,0533	     301,255	-87,7	     309,556	-89,4
     42,0552	     303,075	-87,5	     310,472	-88,4
     42,0572	     304,004	-86,6	     309,825	-86,6
     42,0591	     305,523	-88,5	     311,386	-88,3
     42,0611	     304,896	-88,2	     312,092	-87,0
      42,063	     306,275	-86,6	     314,861	-86,1
      42,065	     307,509	-86,5	     316,133	-87,5
      42,067	     309,721	-87,0	     316,895	-86,7
     42,0689	     310,293	-85,6	     317,724	-84,7
     42,0709	     312,739	-88,2	     318,732	-86,3
     42,0728	     312,433	-89,1	     320,627	-87,5
     42,0748	     313,882	-85,3	     322,131	-85,8
     42,0767	     316,021	-86,0	     322,447	-86,2
     42,0787	     315,982	-85,1	     322,536	-88,0
     42,0806	     317,127	-85,1	      323,61	-87,8
     42,0826	     316,819	-85,0	     324,129	-86,7
     42,0846	     319,284	-86,0	     325,849	-87,5
     42,0865	     320,629	-84,7	     328,021	-85,9
     42,0885	     321,713	-86,0	     329,595	-84,8
     42,0904	     322,667	-86,7	     331,856	-86,0
     42,0924	     323,429	-85,2	     333,886	-84,1
     42,0943	     324,544	-84,7	     334,093	-83,5
     42,0963	      326,52	-86,0	     334,486	-83,9
     42,0982	     328,157	-86,2	     336,362	-85,9
     42,1002	     330,707	-83,1	     337,655	-83,9
     42,1021	     331,269	-84,6	     337,806	-85,9
     42,1041	     331,394	-83,1	     340,833	-86,0
     42,1061	       332,1	-83,7	     341,252	-83,4
      42,108	     333,962	-85,0	     343,126	-84,7
       42,11	      335,33	-84,2	     345,693	-84,4
     42,1119	     335,784	-83,7	     347,548	-83,3
     42,1139	     337,918	-83,6	     347,825	-83,5
     42,1158	     339,782	-84,1	     348,629	-83,7
     42,1178	     340,973	-83,0	     351,392	-81,7
     42,1197	     341,536	-83,4	     351,826	-82,1
     42,1217	     343,703	-84,6	     354,614	-84,4
     42,1237	     345,437	-84,9	     355,979	-83,4
     42,1256	     347,052	-82,0	     356,778	-83,2
     42,1276	     348,349	-83,8	     357,758	-84,5
     42,1295	     349,264	-80,7	     359,476	-82,5
     42,1315	     351,433	-81,6	     361,103	-81,0
     42,1334	     352,362	-83,7	     363,239	-82,4
     42,1354	     352,501	-82,7	     365,442	-82,9
     42,1373	     354,146	-81,0	     365,952	-79,4
     42,1393	     355,293	-81,2	     365,986	-80,6
     42,1413	     355,983	-82,4	     366,981	-81,2
     42,1432	     358,047	-81,8	     368,751	-80,3
     42,1452	      358,97	-81,5	     370,576	-79,6
     42,1471	     361,267	-82,4	     374,343	-82,2
     42,1491	     362,202	-81,8	     374,852	-81,6
      42,151	      365,15	-80,2	     376,521	-81,1
      42,153	     366,664	-82,0	     378,576	-80,2
     42,1549	     367,328	-79,5	     381,151	-81,9
     42,1569	     369,189	-79,8	     382,264	-81,0
     42,1588	     369,903	-81,1	      382,23	-81,6
     42,1608	     370,728	-80,6	     384,218	-82,1
     42,1628	     373,225	-78,4	     387,024	-79,0
     42,1647	     375,207	-78,9	     388,836	-78,8
     42,1667	     377,154	-80,6	     390,299	-79,8
     42,1686	     377,863	-79,8	       393,3	-79,4
     42,1706	     381,052	-80,0	     395,421	-77,6
     42,1725	     381,411	-80,1	     395,926	-77,5
     42,1745	     383,189	-78,5	     398,025	-79,3
     42,1764	     384,886	-78,1	      398,83	-77,0
     42,1784	      385,66	-79,7	     400,729	-79,8
     42,1804	     386,238	-80,1	     402,507	-79,0
     42,1823	     388,477	-76,1	      404,63	-77,0
     42,1843	     390,616	-77,4	     405,336	-78,0
     42,1862	     391,376	-76,9	     408,361	-79,6
     42,1882	     392,507	-76,5	     409,658	-75,2
     42,1901	     395,599	-76,6	     411,937	-76,3
     42,1921	     397,503	-77,7	     414,065	-77,6
      42,194	     399,188	-76,4	     416,195	-75,7
      42,196	      401,09	-75,8	     417,513	-74,4
     42,1979	     403,257	-75,8	      419,23	-76,7
     42,1999	     406,165	-77,2	     420,854	-75,6
     42,2019	     407,338	-76,2	     424,646	-74,3
     42,2038	     409,804	-76,5	      425,66	-75,2
     42,2058	     410,907	-77,7	     429,006	-76,3
     42,2077	     412,044	-74,5	      429,76	-75,2
     42,2097	     414,484	-74,2	     431,639	-74,8
     42,2116	     418,106	-75,2	      433,73	-75,2
     42,2136	     420,192	-74,9	     438,153	-75,0
     42,2155	     422,386	-72,8	     439,013	-75,0
     42,2175	     423,848	-74,6	     440,367	-74,6
     42,2195	     423,978	-74,0	     442,592	-74,7
     42,2214	      426,13	-71,4	     445,084	-71,2
     42,2234	     428,874	-74,2	     445,528	-72,7
     42,2253	     430,161	-73,1	      449,15	-73,1
     42,2273	     431,148	-73,7	     451,344	-72,8
     42,2292	     432,218	-71,4	     452,546	-70,7
     42,2312	     433,923	-76,0	     453,847	-71,3
     42,2331	     436,015	-74,0	     457,844	-72,1
     42,2351	     438,413	-71,2	     458,937	-70,3
      42,237	     440,675	-72,8	     461,291	-72,3
      42,239	     441,769	-73,0	     462,614	-71,4
      42,241	     443,251	-71,7	     466,388	-70,9
     42,2429	     445,848	-71,2	     468,159	-71,7
     42,2449	     448,928	-71,2	     470,733	-72,4
     42,2468	     451,044	-71,9	     473,244	-72,2
     42,2488	      452,84	-68,2	     474,911	-69,0
     42,2507	      455,19	-69,3	     477,211	-70,2
     42,2527	     456,364	-70,8	     481,247	-70,5
     42,2546	     456,866	-69,7	     484,368	-69,3
     42,2566	     460,283	-68,3	     485,401	-67,4
     42,2586	     462,031	-69,0	     487,383	-68,1
     42,2605	     466,057	-68,7	     489,425	-66,1
     42,2625	     467,421	-67,8	     492,315	-66,8
     42,2644	     470,155	-70,0	     494,904	-67,7
     42,2664	     472,301	-70,0	     497,741	-67,6
     42,2683	     473,545	-68,7	     499,406	-65,0
     42,2703	     476,407	-66,2	     502,764	-66,7
     42,2722	     479,384	-68,3	      505,13	-66,6
     42,2742	     481,501	-68,7	     506,491	-66,0
     42,2761	     484,261	-65,2	     508,971	-65,1
     42,2781	     485,509	-66,2	     510,378	-65,7
     42,2801	     486,883	-67,7	     512,699	-66,3
      42,282	     489,326	-65,3	     515,146	-64,7
      42,284	     492,467	-64,4	     517,837	-64,2
     42,2859	     494,998	-64,4	     520,748	-64,9
     42,2879	      497,05	-65,5	      524,54	-62,6
     42,2898	      498,16	-63,6	     526,584	-62,3
     42,2918	     500,299	-62,0	     529,203	-63,2
     42,2937	     503,332	-65,7	     532,397	-63,0
     42,2957	     505,762	-63,1	     534,573	-60,4
     42,2977	     508,161	-61,9	     535,345	-59,6
     42,2996	     510,567	-62,4	     537,204	-60,4
     42,3016	     512,369	-63,6	      541,16	-60,3
     42,3035	     512,869	-61,9	     543,376	-59,4
     42,3055	     516,543	-62,5	     546,002	-58,9
     42,3074	     519,647	-63,1	     550,341	-60,1
     42,3094	     523,057	-60,8	      553,34	-58,2
     42,3113	     525,525	-60,3	     554,151	-59,9
     42,3133	     527,976	-61,4	     555,829	-59,1
     42,3153	     529,434	-62,6	     560,133	-58,3
     42,3172	     530,905	-61,0	     561,083	-57,5
     42,3192	     533,701	-59,1	     562,536	-56,8
     42,3211	      535,77	-60,2	      565,97	-59,0
     42,3231	     536,972	-59,0	      568,64	-58,5
      42,325	     539,598	-59,4	     570,472	-55,7
      42,327	     542,492	-56,7	     571,292	-56,8
     42,3289	     543,322	-57,8	     574,025	-56,3
     42,3309	     545,648	-56,5	      575,21	-55,7
     42,3328	     547,645	-55,3	     577,248	-54,8
     42,3348	     551,212	-56,4	     579,352	-55,4
     42,3368	     552,631	-56,7	     583,068	-52,4
     42,3387	     553,852	-54,4	     586,318	-52,4
     42,3407	     556,956	-53,5	     586,669	-51,6
     42,3426	     559,016	-56,3	     588,959	-53,3
     42,3446	     560,751	-55,5	     589,831	-52,8
     42,3465	     564,007	-53,1	     592,955	-51,0
     42,3485	     567,051	-52,3	     594,695	-50,5
     42,3504	     569,204	-53,7	     597,327	-52,1
     42,3524	     570,156	-54,0	      598,34	-50,3
     42,3544	     573,324	-52,6	     600,149	-49,8
     42,3563	     575,073	-51,7	     603,445	-48,5
     42,3583	     578,014	-53,5	     606,317	-50,1
     42,3602	     580,061	-52,3	     607,733	-47,7
     42,3622	     583,959	-50,6	     610,158	-49,9
     42,3641	     585,889	-51,6	     611,313	-49,4
     42,3661	     588,045	-50,2	     612,595	-47,9
      42,368	     590,171	-50,3	     613,697	-46,7
       42,37	      591,67	-49,3	     616,353	-48,8
     42,3719	     592,091	-49,7	     618,081	-48,1
     42,3739	     594,008	-48,0	     620,526	-45,3
     42,3759	     596,695	-46,8	     621,982	-45,1
     42,3778	     599,037	-47,2	     623,671	-45,9
     42,3798	     600,407	-48,3	     625,223	-46,3
     42,3817	     602,903	-47,5	     627,563	-45,4
     42,3837	     605,272	-44,2	      628,76	-43,8
     42,3856	     606,278	-44,9	     629,576	-45,0
     42,3876	     606,734	-45,3	     631,711	-43,1
     42,3895	     608,888	-44,7	     633,043	-41,6
     42,3915	     613,099	-43,7	     634,507	-42,2
     42,3935	     614,017	-43,5	     635,258	-42,8
     42,3954	     615,156	-44,0	     637,448	-40,3
     42,3974	     616,842	-42,0	     638,564	-40,1
     42,3993	       620,5	-42,8	     639,128	-40,8
     42,4013	     621,498	-42,9	     639,771	-40,6
     42,4032	     622,794	-43,0	     642,323	-38,2
     42,4052	     623,827	-40,7	     644,489	-37,5
     42,4071	     624,716	-39,7	     644,671	-39,3
     42,4091	     626,422	-41,0	     644,449	-38,9
      42,411	      629,04	-40,4	     646,547	-38,2
      42,413	     630,321	-40,7	     648,199	-37,0
      42,415	     633,478	-41,1	     647,713	-35,2
     42,4169	     633,732	-41,5	     649,015	-37,4
     42,4189	     634,007	-40,2	     649,777	-35,6
     42,4208	      636,41	-37,7	     650,505	-36,2
     42,4228	     638,921	-37,9	     650,203	-36,5
     42,4247	     639,025	-37,5	     651,301	-36,1
     42,4267	     640,169	-37,5	     652,362	-33,8
     42,4286	     641,833	-35,6	     652,414	-35,6
     42,4306	     642,063	-36,2	     653,575	-34,8
     42,4326	     641,849	-36,2	     653,971	-35,0
     42,4345	     644,468	-36,1	     655,742	-33,2
     42,4365	      645,84	-34,2	     656,005	-33,1
     42,4384	     646,748	-34,5	     657,507	-33,9
     42,4404	     649,196	-33,7	     657,636	-31,0
     42,4423	     649,141	-32,7	      657,93	-31,4
     42,4443	     649,167	-32,2	     657,685	-30,0
     42,4462	     651,577	-33,1	     657,901	-32,2
     42,4482	     652,611	-31,0	     658,895	-31,4
     42,4501	     653,751	-31,0	     658,732	-29,6
     42,4521	     654,172	-29,5	     660,004	-30,5
     42,4541	     654,895	-30,7	     660,574	-29,5
      42,456	     654,553	-30,4	     660,047	-30,3
      42,458	     655,003	-28,5	     660,093	-26,8
     42,4599	     656,013	-27,1	     661,187	-27,5
     42,4619	     656,214	-29,2	     660,643	-27,9
     42,4638	     658,047	-29,1	     660,757	-27,5
     42,4658	     659,544	-26,5	     659,643	-24,7
     42,4677	       659,4	-26,6	     660,995	-26,3
     42,4697	     660,497	-28,4	     659,962	-25,1
     42,4717	     660,882	-26,8	     660,514	-24,3
     42,4736	     661,499	-25,2	     659,576	-23,6
     42,4756	     661,769	-24,4	     659,975	-24,1
     42,4775	     661,548	-24,2	     660,572	-24,0
     42,4795	     661,384	-24,9	     660,479	-22,6
     42,4814	      660,69	-23,7	     661,046	-21,8
     42,4834	     661,888	-23,7	      659,54	-23,5
     42,4853	     661,446	-22,9	     660,258	-23,3
     42,4873	     661,404	-23,7	     660,757	-20,7
     42,4892	     662,137	-22,6	     659,866	-18,8
     42,4912	      660,65	-22,9	      659,45	-21,7
     42,4932	     661,202	-24,0	     658,863	-21,9
     42,4951	     660,183	-23,2	     657,512	-18,8
     42,4971	     661,313	-21,0	     657,719	-18,7
      42,499	     660,939	-21,4	      656,16	-20,6
      42,501	     660,719	-20,9	     655,884	-19,5
     42,5029	      660,69	-22,0	     656,076	-18,2
     42,5049	     661,432	-20,1	      655,17	-16,9
     42,5068	     662,251	-20,0	     653,352	-20,2
     42,5088	     661,268	-19,4	     653,147	-18,3
     42,5108	     660,454	-20,1	     654,082	-17,7
     42,5127	     660,356	-19,3	     653,816	-15,1
     42,5147	     660,819	-17,1	      653,02	-17,3
     42,5166	     659,539	-17,9	     653,028	-16,7
     42,5186	     658,987	-18,9	     652,955	-16,3
     42,5205	     659,341	-17,2	     652,562	-15,0
     42,5225	     659,174	-16,8	     651,016	-17,6
     42,5244	     658,601	-16,8	     650,113	-15,9
     42,5264	     657,666	-16,6	     649,114	-16,0
     42,5283	     658,275	-15,8	     649,806	-14,1
     42,5303	     658,222	-15,8	     647,614	-13,2
     42,5323	      658,11	-15,2	     647,013	-15,8
     42,5342	     655,553	-14,8	     645,792	-14,5
     42,5362	     655,146	-14,1	     645,138	-12,6
     42,5381	     654,598	-13,3	     644,896	-11,4
     42,5401	     653,132	-13,8	     643,544	-15,6
      42,542	      651,18	-14,2	     641,787	-12,0
      42,544	     650,408	-13,0	     643,318	-11,7
     42,5459	     650,406	-13,2	      642,69	-10,8
     42,5479	     649,667	-12,9	     640,219	-14,0
     42,5499	     648,506	-13,5	     640,008	-11,9
     42,5518	     646,936	-11,7	     640,058	-9,9
     42,5538	     646,928	-11,0	     638,865	-9,1
     42,5557	      646,74	-11,4	     637,112	-11,4
     42,5577	     645,394	-11,3	     635,328	-12,3
     42,5596	     644,681	-11,2	     636,779	-9,4
     42,5616	     645,028	-8,9	     634,571	-8,4
     42,5635	     644,006	-9,3	     633,681	-10,7
     42,5655	     641,619	-9,2	     632,277	-10,3
     42,5674	     640,486	-9,8	     632,466	-8,2
     42,5694	     640,757	-8,7	     630,832	-7,4
     42,5714	     640,357	-7,2	      629,54	-9,4
     42,5733	     639,486	-7,1	     627,938	-8,8
     42,5753	     636,679	-7,6	     626,563	-8,2
     42,5772	     637,075	-8,0	     626,689	-5,5
     42,5792	     634,808	-5,7	     624,337	-5,0
     42,5811	     632,785	-7,7	     621,863	-7,9
     42,5831	     632,193	-7,6	     621,305	-6,6
      42,585	     631,087	-4,3	     620,977	-5,7
      42,587	     630,017	-4,9	     620,317	-4,0
      42,589	     628,773	-5,6	     618,937	-6,4
     42,5909	     627,036	-5,5	     616,663	-5,7
     42,5929	     625,404	-3,9	     614,913	-5,3
     42,5948	     626,303	-3,7	     613,789	-3,4
     42,5968	      626,04	-3,4	     612,787	-5,5
     42,5987	     623,502	-4,2	     611,128	-5,0
     42,6007	     622,952	-6,1	     611,215	-4,1
     42,6026	     622,222	-2,8	      609,75	-2,8
     42,6046	     622,216	-2,6	     608,949	-3,0
     42,6065	     620,009	-3,5	      607,18	-2,8
     42,6085	     618,055	-3,9	     607,885	-4,2
     42,6105	     615,473	-1,0	     606,411	-0,9
     42,6124	     614,424	-1,1	     605,177	-2,1
     42,6144	     612,414	-2,1	     602,597	-2,1
     42,6163	     610,859	-1,9	         601	-1,7
     42,6183	     609,559	 0,1	     601,074	-1,0
     42,6202	     609,366	-0,6	      600,34	 0,1
     42,6222	     607,252	-0,5	     597,217	 0,2
     42,6241	     606,214	-1,0	     596,007	 0,5
     42,6261	     603,864	-0,4	     593,893	-0,3
     42,6281	     603,486	-0,5	     592,724	 0,5
       42,63	     600,687	 0,9	     591,579	 1,7
      42,632	     599,372	 0,5	     589,568	 2,1
     42,6339	       597,9	 0,2	     588,872	 0,6
     42,6359	     596,662	 0,0	     587,755	 2,6
     42,6378	      596,61	 2,3	     587,797	 2,5
     42,6398	      595,49	 1,3	     587,254	 3,7
     42,6417	     595,566	 1,4	     585,302	 1,6
     42,6437	       592,4	 2,5	     584,132	 2,7
     42,6456	     592,005	 2,0	     582,791	 4,0
     42,6476	     590,844	 2,8	     581,224	 5,1
     42,6496	     590,798	 2,9	     579,672	 3,1
     42,6515	     587,599	 2,0	     577,245	 3,9
     42,6535	     584,913	 4,1	      576,53	 4,8
     42,6554	     582,393	 4,7	     574,519	 6,0
     42,6574	     581,938	 4,3	     571,711	 4,5
     42,6593	     580,119	 2,7	       570,6	 3,5
     42,6613	     579,936	 3,9	     569,289	 5,8
     42,6632	     578,969	 5,6	     567,607	 6,8
     42,6652	     577,374	 5,1	     565,858	 6,2
     42,6672	     574,481	 4,3	      564,25	 6,6
     42,6691	     573,413	 4,8	     564,679	 6,1
     42,6711	     573,003	 5,7	     563,483	 6,5
      42,673	     571,615	 7,1	     563,729	 7,3
      42,675	     570,523	 7,0	     561,023	 7,9
     42,6769	     569,189	 4,9	     561,132	 7,0
     42,6789	     567,146	 6,0	     558,196	 6,8
     42,6808	     565,745	 8,2	     556,122	 6,2
     42,6828	     563,885	 9,4	     555,625	 9,7
     42,6847	     562,655	 6,3	     553,933	 8,2
     42,6867	     560,941	 7,2	     551,905	 7,7
     42,6887	     559,439	 8,5	     551,167	 7,0
     42,6906	     558,188	 9,1	      549,31	 9,6
     42,6926	     556,412	 9,0	     546,604	 8,4
     42,6945	     555,443	 9,5	     545,203	 8,4
     42,6965	     554,474	 9,0	     543,527	 6,2
     42,6984	     553,369	10,7	     542,226	 9,5
     42,7004	     551,087	10,8	     542,027	 8,8
     42,7023	     550,026	11,2	     539,028	 8,6
     42,7043	     547,702	11,3	     538,992	 8,3
     42,7063	     546,588	11,0	     538,148	 9,6
     42,7082	     544,427	11,0	     537,165	 9,2
     42,7102	     543,278	12,0	     536,484	 9,8
     42,7121	     540,536	13,6	      534,51	10,4
     42,7141	     538,434	11,6	     532,625	 8,1
      42,716	     537,306	11,8	     531,412	 8,9
      42,718	     536,902	13,5	     530,508	11,4
     42,7199	     536,168	12,4	      529,13	11,0
     42,7219	     535,913	12,6	     525,322	 9,9
     42,7239	     534,077	10,9	     524,478	 9,8
     42,7258	     531,742	14,1	     523,369	11,7
     42,7278	     529,297	13,2	     522,178	11,9
     42,7297	     527,103	13,3	     520,865	12,8
     42,7317	     526,387	13,3	      519,66	11,7
     42,7336	     524,459	15,0	     517,629	12,3
     42,7356	     522,653	14,1	      515,82	13,6
     42,7375	     520,869	15,3	     515,263	14,2
     42,7395	     520,392	13,4	     513,288	13,9
     42,7414	     519,944	13,4	     511,293	13,1
     42,7434	     517,244	13,0	     509,918	12,7
     42,7454	     516,705	13,0	     508,263	13,6
     42,7473	     515,349	15,8	     508,352	15,2
     42,7493	     514,552	15,2	     507,245	15,5
     42,7512	     512,424	14,2	     504,363	13,5
     42,7532	     510,208	13,4	     503,028	13,7
     42,7551	     508,565	16,0	     501,329	15,3
     42,7571	     507,823	14,8	     500,662	16,7
      42,759	     505,284	15,1	     499,543	16,5
      42,761	     504,285	15,5	     499,639	15,1
      42,763	     501,716	15,7	     498,666	15,8
     42,7649	     500,672	15,4	     497,697	15,2
     42,7669	     499,396	17,6	     495,481	16,9
     42,7688	     498,434	16,8	     494,903	17,3
     42,7708	     496,163	16,7	     493,615	14,7
     42,7727	     495,483	17,9	     492,836	14,9
     42,7747	     494,101	18,2	     490,969	17,4
     42,7766	     491,816	19,4	     489,691	15,9
     42,7786	     490,055	19,5	     485,835	16,2
     42,7805	     489,622	17,8	     485,092	15,5
     42,7825	     489,352	17,7	     483,541	15,4
     42,7845	     487,797	20,1	     481,629	17,0
     42,7864	     485,734	20,0	     480,813	18,5
     42,7884	     482,455	19,6	     479,129	17,3
     42,7903	     481,998	18,0	     479,146	17,9
     42,7923	     480,693	19,7	     477,294	15,7
     42,7942	     479,601	20,0	     475,918	17,9
     42,7962	     477,306	20,1	     474,799	19,3
     42,7981	     476,117	19,7	     472,943	19,5
     42,8001	     474,113	18,9	     471,219	17,9
     42,8021	     473,559	18,8	     468,789	17,8
      42,804	     471,061	21,0	     467,003	19,5
      42,806	     471,471	21,3	     465,633	21,1
     42,8079	     469,531	19,3	     465,383	19,5
     42,8099	     468,901	18,5	     465,657	20,4
     42,8118	     467,863	19,0	     464,037	19,4
     42,8138	     466,363	20,1	      462,66	19,6
     42,8157	     466,508	22,0	     461,456	21,0
     42,8177	     464,346	19,6	     459,624	20,9
     42,8196	     463,277	21,8	     457,096	20,8
     42,8216	     460,565	20,8	     456,215	19,2
     42,8236	     459,256	21,7	     455,159	19,0
     42,8255	     457,574	23,7	     455,294	20,4
     42,8275	      456,16	22,1	      454,08	20,7
     42,8294	     454,493	22,5	     452,104	21,8
     42,8314	     453,367	22,1	     451,447	20,6
     42,8333	     450,916	22,5	     450,105	19,9
     42,8353	     449,903	25,2	         449	20,0
     42,8372	      449,03	23,9	     448,309	21,6
     42,8392	     446,833	22,8	     447,024	22,1
     42,8412	     446,344	22,3	     443,798	20,9
     42,8431	     444,481	24,7	     442,986	21,9
     42,8451	     443,166	23,8	     441,588	22,7
      42,847	     442,837	23,9	     439,289	24,0
      42,849	     441,769	23,6	     437,454	22,9
     42,8509	     439,633	22,5	     436,299	23,2
     42,8529	     438,632	22,9	     433,721	22,3
     42,8548	     438,161	23,7	     435,313	23,0
     42,8568	     437,055	24,0	     434,401	24,5
     42,8587	     434,357	22,5	     434,013	24,2
     42,8607	     433,282	23,4	     431,756	23,7
     42,8627	     432,241	24,5	     430,985	22,5
     42,8646	       430,7	24,6	     428,823	23,1
     42,8666	     429,335	26,3	     428,071	22,8
     42,8685	     428,322	25,7	     427,182	25,3
     42,8705	     427,192	26,7	     425,442	24,0
     42,8724	     424,878	25,5	     423,078	23,7
     42,8744	     423,766	26,4	     421,507	22,5
     42,8763	     423,447	27,1	     420,557	23,4
     42,8783	     422,379	26,7	      418,18	23,5
     42,8803	     421,348	27,7	     417,891	24,8
     42,8822	     420,179	25,5	     416,413	25,8
     42,8842	     417,132	25,7	     415,605	24,1
     42,8861	     417,439	25,4	     414,876	25,0
     42,8881	     416,265	27,8	     412,716	26,5
       42,89	     415,182	25,9	     412,824	27,1
      42,892	     413,988	25,5	     412,319	26,6
     42,8939	     412,539	25,2	     411,594	26,4
     42,8959	      411,49	26,5	     409,285	24,7
     42,8979	     410,439	26,9	     409,054	23,7
     42,8998	     408,572	27,2	      408,11	26,4
     42,9018	     407,958	27,3	     406,841	26,4
     42,9037	     406,515	25,0	     403,926	26,0
     42,9057	     403,729	25,8	     403,162	25,4
     42,9076	     403,767	29,3	     401,765	25,5
     42,9096	     402,395	28,9	     401,615	25,5
     42,9115	     401,151	30,2	     400,631	26,5
     42,9135	     400,137	27,6	     399,996	26,8
     42,9154	     399,214	28,3	     398,818	27,8
     42,9174	     396,709	27,8	     396,705	25,7
     42,9194	     396,724	27,0	     394,137	26,2
     42,9213	     396,686	29,2	     394,359	28,9
     42,9233	     396,138	29,3	     394,092	29,7
     42,9252	     393,962	27,7	     392,352	28,0
     42,9272	     392,557	26,8	     392,241	29,2
     42,9291	     390,394	28,6	     390,009	28,0
     42,9311	     390,198	28,6	     389,745	27,8
      42,933	     388,247	29,1	     388,481	25,2
      42,935	     388,086	29,8	     387,882	29,5
      42,937	     386,836	27,5	       386,8	27,6
     42,9389	     386,296	28,5	     385,012	27,7
     42,9409	     384,881	30,4	     383,689	26,9
     42,9428	     383,834	31,6	      382,36	26,9
     42,9448	     380,951	31,6	      381,25	28,4
     42,9467	     379,873	30,9	     380,163	30,1
     42,9487	     379,065	30,9	     378,123	29,3
     42,9506	     378,705	31,0	     377,399	31,2
     42,9526	     378,424	32,0	     375,989	29,2
     42,9545	     377,425	31,0	     374,865	30,6
     42,9565	     376,094	30,3	      374,99	32,3
     42,9585	     374,025	30,1	     375,831	30,6
     42,9604	     372,484	30,1	      374,12	32,1
     42,9624	         372	29,6	     372,726	29,7
     42,9643	     369,946	31,5	     370,897	29,2
     42,9663	     370,356	31,5	      369,76	28,3
     42,9682	      369,46	29,9	     367,672	28,4
     42,9702	     367,722	31,0	     367,324	30,4
     42,9721	     366,685	29,5	     366,686	29,9
     42,9741	      366,12	31,6	     365,481	29,8
     42,9761	     365,865	32,8	     363,853	28,4
      42,978	     364,882	32,9	     361,519	29,6
       42,98	     363,019	32,8	     361,075	32,4
     42,9819	     361,433	32,5	     360,613	32,5
     42,9839	     359,477	32,2	     358,958	31,8
     42,9858	     358,281	30,3	     358,894	32,6
     42,9878	     357,645	32,7	     359,339	30,9
     42,9897	     357,678	32,4	     357,752	30,8
     42,9917	     356,785	33,3	     356,734	29,1
     42,9936	     355,876	30,8	     357,151	31,3
     42,9956	      355,65	31,1	     354,293	32,2
     42,9976	     354,745	32,3	     353,182	31,1
     42,9995	     353,645	32,2	     351,537	33,0
     43,0015	     352,494	34,1	     349,703	30,6
     43,0034	     350,767	34,4	     347,913	31,2
     43,0054	     348,894	33,5	     348,918	34,1
     43,0073	     347,418	32,8	     348,823	34,8
     43,0093	     346,835	32,7	     348,266	33,7
     43,0112	     346,266	32,4	     348,514	33,4
     43,0132	     346,418	34,1	     347,466	32,5
     43,0152	     345,592	34,2	     347,111	33,3
     43,0171	     343,028	32,6	     346,911	33,8
     43,0191	     341,762	32,8	     345,287	32,7
      43,021	     340,063	32,6	     343,053	31,9
      43,023	     339,957	32,5	     341,189	32,6
     43,0249	     340,951	34,3	     339,612	31,3
     43,0269	     339,824	35,1	     338,316	31,0
     43,0288	     337,909	33,9	     336,913	32,0
     43,0308	      336,89	34,3	      336,95	34,0
     43,0327	     334,794	33,8	     336,565	35,9
     43,0347	       335,1	35,2	     336,218	34,7
     43,0367	     334,594	33,6	     336,367	34,2
     43,0386	     334,067	35,6	     334,883	33,9
     43,0406	     333,508	33,9	     333,722	33,6
     43,0425	      331,23	33,7	     332,471	32,1
     43,0445	     331,342	32,8	     331,863	34,4
     43,0464	     330,407	33,3	     330,584	33,5
     43,0484	     331,104	34,0	     328,815	32,4
     43,0503	     329,787	35,2	     327,093	34,6
     43,0523	      329,02	36,2	      325,92	33,1
     43,0543	     327,613	38,2	     326,106	34,4
     43,0562	     325,831	35,3	     326,159	35,6
     43,0582	     324,256	34,8	     325,825	36,2
     43,0601	     322,905	36,4	     324,096	34,6
     43,0621	     322,106	37,2	     323,505	34,9
      43,064	     321,397	36,3	      321,08	35,4
      43,066	     319,718	35,9	      321,14	32,9
     43,0679	     319,279	34,7	      320,94	35,4
     43,0699	     319,251	34,1	     319,853	34,6
     43,0718	     317,944	34,7	     318,863	34,9
     43,0738	     317,977	34,3	     317,425	34,5
     43,0758	     317,534	37,1	     315,616	35,5
     43,0777	     317,784	37,6	     314,428	33,8
     43,0797	     316,316	36,3	     315,635	35,8
     43,0816	     315,385	37,0	     314,501	35,7
     43,0836	      313,64	36,2	     314,035	37,6
     43,0855	     313,168	35,0	      314,14	36,7
     43,0875	     311,408	37,1	     314,203	36,1
     43,0894	     310,583	36,6	     313,403	33,1
     43,0914	     310,736	36,6	     311,486	34,4
     43,0934	     307,922	36,2	     310,434	34,4
     43,0953	     307,988	34,5	     309,394	34,5
     43,0973	     306,634	36,2	     308,864	37,5
     43,0992	     307,114	35,8	     308,285	36,7
     43,1012	     307,614	37,4	     306,079	35,7
     43,1031	     306,686	38,2	     304,769	35,7
     43,1051	     305,364	39,3	     303,713	36,3
      43,107	     304,526	37,4	     303,461	36,4
      43,109	     302,496	37,1	     303,857	38,3
     43,1109	     300,531	37,3	     302,866	36,6
     43,1129	     300,461	36,0	     301,179	37,0
     43,1149	     300,438	37,9	     300,651	35,8
     43,1168	     299,953	37,0	     298,809	35,0
     43,1188	     298,988	36,2	      298,59	35,6
     43,1207	     298,715	37,3	     299,223	36,6
     43,1227	     297,761	38,0	     297,773	37,0
     43,1246	     298,063	37,6	     298,224	38,0
     43,1266	     295,541	38,9	     297,499	38,6
     43,1285	     295,199	39,7	     295,824	36,8
     43,1305	     293,977	40,1	     295,407	37,3
     43,1325	     293,488	39,0	     295,226	36,9
     43,1344	     292,044	37,7	     293,173	35,7
     43,1364	     291,022	36,8	     291,561	35,4
     43,1383	     291,106	36,5	     291,083	37,0
     43,1403	     291,233	38,4	     290,489	38,9
     43,1422	     290,934	39,8	     289,808	37,8
     43,1442	     288,505	38,6	     290,111	39,3
     43,1461	     287,786	40,5	       289,3	37,1
     43,1481	     286,968	38,3	     289,438	38,1
       43,15	     285,043	38,9	     289,179	38,3
      43,152	     284,284	39,0	     288,129	38,0
      43,154	     283,737	37,1	     286,972	38,5
     43,1559	     284,012	38,8	     284,915	38,4
     43,1579	     284,353	38,6	     284,451	36,9
     43,1598	     284,804	39,5	     283,075	36,7
     43,1618	     283,797	36,4	     281,247	37,1
     43,1637	      283,16	39,1	     282,107	38,3
     43,1657	     280,903	39,7	     282,635	38,7
     43,1676	     279,727	40,1	     282,344	40,0
     43,1696	     278,471	38,7	     281,765	38,7
     43,1716	     279,566	40,9	     279,551	39,5
     43,1735	     278,855	38,5	     277,798	37,5
     43,1755	     276,702	39,6	     276,515	37,0
     43,1774	     276,471	39,7	     276,552	37,4
     43,1794	     275,111	37,3	     275,899	38,6
     43,1813	     274,765	37,6	     276,512	39,7
     43,1833	     274,889	39,7	     276,641	40,9
     43,1852	     273,573	41,0	     275,714	40,7
     43,1872	     272,734	42,3	     276,458	41,8
     43,1891	     272,333	41,3	     273,917	37,8
     43,1911	     271,165	40,6	     273,474	38,6
     43,1931	     270,205	39,8	     271,525	39,4
      43,195	     271,008	39,1	      269,32	38,3
      43,197	     271,282	38,3	     268,944	39,9
     43,1989	     269,723	41,0	     270,012	41,1
     43,2009	     268,484	40,6	     270,349	41,8
     43,2028	     268,074	40,8	     270,212	40,0
     43,2048	     267,975	41,5	     269,226	40,4
     43,2067	     267,804	39,3	     267,518	38,9
     43,2087	     266,505	40,3	     267,336	38,9
     43,2107	      265,19	39,7	     266,973	40,2
     43,2126	       264,5	40,6	       266,2	39,2
     43,2146	     263,964	39,1	     265,955	39,5
     43,2165	     264,841	40,3	     265,358	41,6
     43,2185	     263,762	41,2	     263,805	39,0
     43,2204	     262,319	40,1	     263,749	39,9
     43,2224	     261,506	42,1	     263,099	40,3
     43,2243	     260,563	40,0	     262,551	40,0
     43,2263	     260,068	41,3	     261,962	40,9
     43,2282	     260,102	41,7	     261,533	41,2
     43,2302	     259,463	41,6	     259,588	41,1
     43,2322	     258,655	41,6	     257,145	41,4
     43,2341	     258,857	41,0	     257,362	40,0
     43,2361	     256,981	40,0	     258,754	39,7
      43,238	      256,86	41,0	      257,73	38,9
       43,24	     256,476	39,5	     257,217	41,1
     43,2419	       255,3	40,9	     257,627	41,9
     43,2439	     255,556	42,0	     257,416	40,7
     43,2458	     255,044	41,5	     257,281	41,5
     43,2478	     253,654	43,0	     255,844	41,7
     43,2498	     253,583	41,5	      255,39	41,9
     43,2517	     253,444	40,6	     253,947	39,8
     43,2537	     253,999	40,7	     253,344	40,4
     43,2556	     252,197	42,0	     252,361	39,3
     43,2576	     252,211	41,2	     250,987	41,7
     43,2595	     250,976	42,1	     250,572	41,2
     43,2615	      250,65	42,9	     251,724	43,2
     43,2634	     249,182	41,9	     251,937	42,3
     43,2654	     248,492	43,7	     249,949	41,2
     43,2673	     248,047	41,8	     249,327	41,1
     43,2693	     247,836	40,0	     247,969	40,5
     43,2713	     247,628	41,1	     247,959	41,7
     43,2732	     247,469	41,1	     247,461	42,8
     43,2752	     247,063	41,3	     247,457	42,4
     43,2771	     245,972	43,1	     247,659	43,8
     43,2791	      244,72	42,9	     247,902	42,9
      43,281	     243,662	43,1	     245,992	41,9
      43,283	     243,964	42,4	      244,65	42,0
     43,2849	     242,931	42,0	     243,467	41,6
     43,2869	     243,892	42,1	     243,865	41,3
     43,2889	     243,042	40,7	     241,757	42,6
     43,2908	     241,989	43,3	     241,362	41,6
     43,2928	     241,339	43,0	     241,788	44,3
     43,2947	     239,755	43,2	     241,677	41,0
     43,2967	     240,795	43,8	     240,645	42,0
     43,2986	     240,474	43,0	     240,272	42,7
     43,3006	      238,75	42,6	     241,007	41,0
     43,3025	     238,571	43,1	     240,091	41,6
     43,3045	     236,702	41,4	      238,76	42,0
     43,3064	     236,527	42,0	     236,743	42,3
     43,3084	     237,005	41,9	      236,26	41,6
     43,3104	     236,719	42,7	     236,093	43,3
     43,3123	     236,247	43,7	     236,537	42,0
     43,3143	     235,627	42,8	     236,654	42,4
     43,3162	     235,286	43,5	     236,315	42,6
     43,3182	     233,892	43,5	     236,316	44,9
     43,3201	     233,731	41,1	     235,474	43,8
     43,3221	     232,731	43,5	     233,787	42,3
      43,324	     232,976	42,1	     232,446	41,5
      43,326	     232,008	43,1	     231,996	43,4
      43,328	     231,684	44,4	     232,123	41,7
     43,3299	     232,035	43,6	     232,683	43,3
     43,3319	     230,389	45,5	     231,485	43,6
     43,3338	     229,625	44,3	     230,697	43,6
     43,3358	     228,662	43,7	     231,674	43,8
     43,3377	     226,802	43,2	     231,281	44,9
     43,3397	     226,574	43,8	      229,76	43,3
     43,3416	     227,664	43,7	     229,061	42,9
     43,3436	     226,185	42,9	     228,193	41,7
     43,3456	     226,088	43,4	     227,546	41,8
     43,3475	     226,857	41,5	      226,01	42,6
     43,3495	     226,346	44,1	     225,657	44,0
     43,3514	     226,897	43,6	     225,436	45,2
     43,3534	      225,65	43,6	     225,689	44,7
     43,3553	     225,251	44,6	     224,646	43,7
     43,3573	     224,313	44,1	     224,811	43,3
     43,3592	     222,975	44,1	     224,502	41,9
     43,3612	     222,875	44,1	     224,036	42,9
     43,3631	     223,295	42,9	     222,453	43,4
     43,3651	     223,035	42,8	     222,779	44,3
     43,3671	     221,991	43,5	     222,363	45,4
      43,369	     222,124	44,3	     222,439	44,3
      43,371	     220,436	46,1	      221,95	45,7
     43,3729	     219,718	45,4	     221,416	43,4
     43,3749	     218,806	44,3	     220,681	43,6
     43,3768	     218,905	43,0	     220,019	44,0
     43,3788	     219,317	42,9	     219,064	43,0
     43,3807	     219,335	43,4	     218,669	43,8
     43,3827	     217,708	43,1	     218,146	44,9
     43,3847	     216,731	44,8	     218,208	44,6
     43,3866	     216,759	46,1	     218,805	45,1
     43,3886	     217,507	45,7	     218,153	43,6
     43,3905	     217,447	46,2	     217,188	43,5
     43,3925	     217,923	45,3	     215,584	45,4
     43,3944	     215,972	43,6	     215,141	44,3
     43,3964	     213,994	43,3	     215,802	45,2
     43,3983	     214,331	44,9	     215,847	44,0
     43,4003	     214,671	44,1	      216,53	43,7
     43,4022	     213,995	44,4	     214,943	42,7
     43,4042	      212,76	46,0	     213,083	43,2
     43,4062	     212,372	44,4	     212,508	44,6
     43,4081	     212,064	44,6	     211,031	46,7
     43,4101	     213,382	44,9	      212,05	46,4
      43,412	     212,625	44,5	     212,243	45,9
      43,414	     211,456	45,7	     211,819	44,9
     43,4159	     210,433	46,6	     211,049	43,6
     43,4179	     211,277	45,3	     209,733	46,4
     43,4198	     209,641	44,8	     209,209	43,7
     43,4218	     209,254	43,7	     210,113	43,9
     43,4238	     209,047	45,0	     210,045	44,0
     43,4257	     208,947	45,2	     208,518	45,8
     43,4277	     207,881	46,4	     208,841	44,6
     43,4296	     207,061	47,1	     209,315	43,8
     43,4316	      205,95	46,5	     207,635	45,6
     43,4335	     206,926	45,2	     206,233	46,7
     43,4355	     208,224	45,8	     208,074	46,1
     43,4374	     207,112	44,2	     207,386	46,1
     43,4394	     206,999	46,0	     207,189	45,5
     43,4413	     205,448	45,6	     207,515	44,6
     43,4433	     205,597	45,4	     205,485	43,7
     43,4453	      205,55	45,9	     203,954	44,1
     43,4472	     206,312	47,0	     202,787	44,0
     43,4492	     204,787	45,7	     201,881	45,2
     43,4511	     203,258	46,4	     204,037	46,9
     43,4531	     202,844	46,6	     204,026	46,5
      43,455	     203,146	47,3	     203,685	46,3
      43,457	     203,527	46,4	     202,616	45,8
     43,4589	     202,879	46,9	     202,622	44,8
     43,4609	     201,328	45,1	     201,371	45,8
     43,4629	     201,135	45,2	     199,776	45,2
     43,4648	     199,657	44,1	     199,991	46,0
     43,4668	      200,29	46,1	     199,981	45,4
     43,4687	     199,159	45,8	     199,486	43,8
     43,4707	     198,525	46,4	     199,231	45,4
     43,4726	     199,044	47,3	     198,058	45,4
     43,4746	     199,696	45,5	     197,519	47,2
     43,4765	     199,636	46,7	     198,155	47,8
     43,4785	     200,633	47,1	     198,565	47,9
     43,4804	     198,846	45,9	     198,883	47,0
     43,4824	     197,224	48,0	      198,18	45,9
     43,4844	     195,637	45,8	     196,314	44,6
     43,4863	     194,919	46,1	      194,91	44,3
     43,4883	     195,261	44,3	     195,389	46,0
     43,4902	     196,195	44,5	      193,95	45,5
     43,4922	     195,918	45,6	     194,899	46,5
     43,4941	     195,172	47,0	     194,725	44,1
     43,4961	     195,296	47,7	     194,108	46,4
      43,498	     193,709	46,9	     193,786	46,1
        43,5	     194,079	45,9	     193,208	46,9

