X-Data [Hz]	Piezo (M - Filtered) [mV]	Phase [Deg]	Piezo (M - Filtered) [mV]	Phase [Deg]	
	002: [07-09-24 14:22]		003: [07-09-24 14:26]	
        40,5	     560,492	-103,7	     621,254	-105,0
     40,5029	     584,641	-104,9	     621,355	-104,8
     40,5059	     607,762	-104,5	     621,081	-105,2
     40,5088	     611,602	-105,0	     623,411	-104,9
     40,5117	     617,399	-104,5	     623,722	-104,7
     40,5147	     619,461	-104,4	     624,834	-105,4
     40,5176	     621,713	-104,8	     626,969	-104,9
     40,5205	     623,075	-104,6	     626,183	-104,7
     40,5235	     627,331	-104,8	     627,656	-104,9
     40,5264	     626,292	-104,7	     628,095	-104,9
     40,5293	     626,752	-104,4	     631,352	-104,6
     40,5323	     629,165	-104,9	     631,979	-104,9
     40,5352	     627,896	-104,5	     632,755	-104,3
     40,5381	     631,268	-104,8	     633,323	-105,1
     40,5411	     630,619	-104,8	     636,602	-105,0
      40,544	     633,419	-104,5	     635,704	-104,8
     40,5469	     633,035	-104,8	       638,2	-104,7
     40,5499	     635,715	-104,6	     637,533	-104,6
     40,5528	      636,77	-104,4	     639,853	-104,6
     40,5557	     636,412	-104,4	     640,735	-104,7
     40,5587	     638,761	-104,7	      641,43	-104,3
     40,5616	     638,702	-104,8	     643,527	-104,8
     40,5645	      641,84	-104,8	     642,865	-104,6
     40,5674	     640,825	-104,6	     645,091	-104,4
     40,5704	     643,861	-104,8	      646,87	-104,6
     40,5733	     643,556	-104,8	     647,273	-104,3
     40,5762	     645,594	-104,5	     647,818	-104,2
     40,5792	     645,788	-104,5	      648,81	-104,5
     40,5821	     647,673	-104,6	      650,46	-104,6
      40,585	     649,424	-104,4	     651,028	-104,3
      40,588	     650,178	-104,6	     654,139	-104,4
     40,5909	     650,316	-104,6	     652,448	-104,1
     40,5938	      653,72	-104,5	     655,991	-104,4
     40,5968	     652,652	-104,7	     658,087	-104,2
     40,5997	     654,787	-104,2	     657,503	-104,0
     40,6026	     656,157	-104,4	     658,233	-104,1
     40,6056	     655,286	-104,7	     659,624	-104,5
     40,6085	     658,743	-104,2	     662,019	-104,0
     40,6114	     659,217	-104,6	     662,766	-104,0
     40,6144	     659,536	-104,5	     663,794	-104,1
     40,6173	     660,398	-104,2	     666,063	-104,3
     40,6202	     664,249	-104,5	     666,649	-104,2
     40,6232	     663,568	-104,5	     667,613	-103,8
     40,6261	     665,281	-104,1	     669,481	-103,9
      40,629	     666,962	-104,2	     668,877	-104,1
      40,632	     667,477	-104,0	     671,619	-103,8
     40,6349	      669,66	-104,2	     671,669	-104,0
     40,6378	     669,144	-104,4	     673,181	-104,2
     40,6408	     671,379	-104,2	     674,079	-104,1
     40,6437	     672,184	-104,3	     676,559	-103,9
     40,6466	     673,064	-104,4	     676,661	-104,0
     40,6496	     673,513	-104,0	     677,968	-104,2
     40,6525	     676,929	-103,8	     679,016	-104,1
     40,6554	     677,426	-104,3	     681,936	-103,7
     40,6584	     678,443	-104,0	      681,31	-103,6
     40,6613	     680,703	-103,9	     684,512	-103,9
     40,6642	     681,215	-104,1	     684,667	-104,1
     40,6672	     681,461	-103,8	     685,467	-103,5
     40,6701	     683,576	-104,0	     688,075	-104,1
      40,673	     683,567	-104,1	     688,393	-104,1
      40,676	     686,098	-103,9	     689,478	-103,7
     40,6789	      686,52	-103,5	     692,357	-103,8
     40,6818	     688,341	-104,0	     690,936	-104,0
     40,6847	     688,898	-103,7	     696,415	-103,6
     40,6877	     691,149	-103,7	     695,401	-103,7
     40,6906	     692,396	-103,9	     696,798	-104,0
     40,6936	     693,742	-103,6	     696,956	-103,5
     40,6965	     695,235	-104,0	     700,128	-103,9
     40,6994	     696,226	-103,8	      700,08	-104,1
     40,7023	     698,055	-103,6	     703,671	-103,8
     40,7053	     698,929	-103,4	     702,856	-103,4
     40,7082	     700,324	-103,5	     705,574	-103,7
     40,7111	      701,79	-103,6	     706,054	-103,5
     40,7141	     702,671	-103,4	     707,687	-103,5
      40,717	       704,1	-103,6	     708,609	-103,7
     40,7199	     706,387	-103,2	     711,318	-103,6
     40,7229	      707,96	-103,7	     711,509	-103,6
     40,7258	     708,632	-103,5	     714,191	-103,8
     40,7287	     709,467	-103,4	     714,522	-103,4
     40,7317	     711,309	-103,3	     716,658	-103,7
     40,7346	     712,103	-103,4	     717,669	-103,5
     40,7375	     713,507	-103,1	     719,111	-103,1
     40,7405	     716,459	-103,4	     720,688	-103,0
     40,7434	     716,864	-103,4	     722,466	-103,4
     40,7463	     718,512	-103,6	     723,509	-103,2
     40,7493	     720,923	-103,2	     724,442	-102,9
     40,7522	       721,2	-103,5	     726,336	-103,2
     40,7551	     722,927	-103,5	     727,465	-102,8
     40,7581	     724,903	-103,2	     729,825	-102,8
      40,761	     725,223	-103,4	     729,944	-103,1
     40,7639	     728,309	-103,2	     732,914	-103,2
     40,7669	     728,564	-103,1	       732,8	-102,9
     40,7698	     729,711	-103,2	     735,912	-103,0
     40,7727	     732,191	-103,2	     736,589	-103,3
     40,7757	     732,987	-103,1	     739,372	-103,0
     40,7786	     734,213	-103,1	     738,391	-103,0
     40,7815	     735,495	-103,4	      740,85	-102,9
     40,7845	     737,108	-102,9	     742,733	-102,9
     40,7874	     738,008	-103,5	     744,706	-103,0
     40,7903	     740,154	-103,1	     745,529	-103,3
     40,7933	     743,956	-102,9	     746,796	-103,0
     40,7962	     741,672	-102,7	     751,269	-103,1
     40,7991	     746,222	-103,1	     749,384	-103,1
     40,8021	     746,634	-102,7	     753,777	-102,9
      40,805	     747,427	-102,8	     753,229	-102,7
     40,8079	     750,548	-103,0	     755,155	-103,1
     40,8109	     750,743	-103,1	     758,462	-102,8
     40,8138	     753,211	-102,7	     758,835	-102,3
     40,8167	     754,982	-102,6	     759,507	-102,6
     40,8196	     755,858	-103,2	     761,215	-102,5
     40,8226	     757,086	-103,0	     761,959	-102,2
     40,8255	      759,87	-102,9	      766,02	-102,5
     40,8284	     760,102	-103,0	     765,309	-102,5
     40,8314	     762,588	-102,8	     769,608	-102,8
     40,8343	     764,279	-102,6	     769,927	-102,4
     40,8372	     765,788	-102,5	     771,179	-102,5
     40,8402	     767,931	-102,8	     774,236	-102,7
     40,8431	     767,229	-102,6	     774,091	-102,4
      40,846	     772,332	-102,7	     776,014	-102,5
      40,849	      772,28	-102,7	     778,352	-102,6
     40,8519	     774,912	-102,6	     780,091	-102,2
     40,8548	     774,583	-102,4	     781,012	-102,4
     40,8578	     776,436	-102,4	     784,684	-102,5
     40,8607	     781,031	-102,7	     784,461	-102,4
     40,8636	     779,738	-102,5	     786,391	-102,4
     40,8666	      781,12	-102,4	     788,196	-102,3
     40,8695	     784,012	-102,3	     789,968	-102,4
     40,8724	     787,467	-102,4	      792,93	-101,9
     40,8754	      788,52	-102,4	     792,867	-101,8
     40,8783	     788,308	-102,6	     796,297	-102,3
     40,8812	      790,95	-102,1	     795,743	-101,6
     40,8842	     793,427	-102,4	     798,576	-101,9
     40,8871	     793,599	-102,4	     802,288	-102,2
       40,89	     794,821	-102,3	     800,885	-102,0
      40,893	     796,952	-102,1	     805,247	-102,0
     40,8959	     799,878	-102,4	     806,556	-102,1
     40,8988	     800,745	-102,2	     807,788	-102,3
     40,9018	     802,427	-102,0	     811,075	-102,1
     40,9047	     805,911	-101,8	      812,14	-101,8
     40,9076	     806,652	-101,9	     814,096	-102,1
     40,9106	     809,201	-102,0	     816,266	-102,0
     40,9135	     811,142	-102,0	     817,986	-101,7
     40,9164	     811,279	-101,9	     817,759	-101,5
     40,9194	     815,926	-102,0	     822,538	-101,8
     40,9223	     817,666	-102,1	     823,197	-101,8
     40,9252	     817,293	-101,9	     824,727	-101,7
     40,9282	     819,203	-101,7	     826,187	-101,5
     40,9311	     822,059	-101,9	     828,381	-101,7
      40,934	     823,759	-102,0	     831,484	-101,6
      40,937	     824,667	-101,6	     833,813	-101,6
     40,9399	     829,854	-101,6	     834,448	-101,8
     40,9428	     828,866	-102,0	     837,538	-101,5
     40,9457	     829,359	-101,7	     838,307	-101,3
     40,9487	     835,121	-101,5	     840,943	-101,4
     40,9516	     834,192	-101,8	      843,14	-101,3
     40,9545	     837,159	-101,6	     846,286	-101,3
     40,9575	     838,501	-101,6	      846,72	-101,1
     40,9604	     839,596	-101,4	     848,666	-101,4
     40,9633	     842,199	-101,2	     852,889	-101,5
     40,9663	     846,288	-101,3	     853,817	-101,2
     40,9692	     846,841	-101,3	     853,947	-101,2
     40,9721	     847,589	-101,3	     859,021	-101,4
     40,9751	     851,702	-101,6	       860,7	-101,0
      40,978	     851,604	-101,0	      860,12	-101,2
     40,9809	     856,454	-101,0	     865,257	-101,1
     40,9839	     857,857	-101,5	     866,616	-100,9
     40,9868	     859,291	-101,4	      866,84	-100,9
     40,9897	      864,09	-101,5	     871,183	-101,2
     40,9927	     862,299	-101,2	     873,467	-100,9
     40,9956	     866,604	-101,6	     873,646	-100,9
     40,9985	      867,72	-101,2	     875,995	-101,3
     41,0015	     869,792	-100,8	     879,677	-100,9
     41,0044	     871,211	-100,8	     880,489	-100,8
     41,0073	     873,758	-100,8	     884,552	-101,3
     41,0103	     876,844	-100,9	      886,49	-101,1
     41,0132	     878,612	-100,8	      888,52	-100,4
     41,0161	     881,255	-100,9	     891,295	-100,5
     41,0191	     882,535	-101,1	     893,673	-100,7
      41,022	     885,932	-101,1	     894,713	-100,6
     41,0249	     888,258	-100,8	     896,147	-100,8
     41,0279	     889,518	-100,9	     900,632	-100,6
     41,0308	     891,351	-100,9	     901,966	-100,5
     41,0337	     894,498	-100,6	     905,519	-100,7
     41,0367	     896,999	-100,6	     906,539	-100,5
     41,0396	     900,422	-100,6	     911,378	-100,2
     41,0425	     900,887	-101,0	     910,584	-100,1
     41,0455	     902,981	-101,0	     914,434	-100,4
     41,0484	     906,513	-100,6	     916,531	-100,0
     41,0513	     907,301	-100,6	     918,785	-100,0
     41,0543	      910,98	-100,5	     920,957	-100,4
     41,0572	     912,797	-100,4	     923,908	-100,4
     41,0601	     915,827	-100,2	     928,883	-100,2
      41,063	      918,25	-100,4	     928,711	-100,0
      41,066	     920,323	-100,3	     932,517	-100,2
     41,0689	     923,825	-100,4	     934,978	-99,9
     41,0718	     924,252	-100,5	     936,216	-100,1
     41,0748	      927,83	-100,1	     938,168	-99,6
     41,0777	     930,437	-100,4	     941,638	-99,9
     41,0806	     932,425	-100,3	     945,002	-100,2
     41,0836	     935,463	-99,9	     946,497	-99,7
     41,0865	     937,868	-99,8	     949,029	-100,0
     41,0894	     941,242	-99,7	     953,303	-99,5
     41,0924	      943,65	-100,0	     956,081	-100,0
     41,0953	     944,466	-100,2	     958,818	-99,7
     41,0982	     949,158	-99,9	     960,147	-99,4
     41,1012	     950,656	-99,7	     964,891	-99,5
     41,1041	     951,359	-99,8	     966,538	-99,5
      41,107	      955,15	-99,7	     967,244	-99,6
       41,11	     959,503	-99,5	     971,167	-99,6
     41,1129	     961,638	-99,6	     973,739	-99,3
     41,1158	     963,669	-99,9	     978,359	-99,6
     41,1188	     965,174	-99,9	     980,617	-99,4
     41,1217	     969,774	-99,8	     984,591	-99,2
     41,1246	     972,094	-99,4	     986,209	-99,0
     41,1276	     974,974	-99,3	     988,875	-99,2
     41,1305	     977,166	-99,2	     992,261	-99,3
     41,1334	      980,71	-99,3	     994,046	-99,4
     41,1364	     983,067	-99,3	     999,852	-99,0
     41,1393	     985,425	-99,3	     1001,78	-98,6
     41,1422	     989,264	-99,4	      1004,6	-99,0
     41,1452	     991,849	-99,6	     1007,52	-98,9
     41,1481	     994,377	-99,2	     1012,38	-99,0
      41,151	     996,351	-98,8	     1013,76	-98,7
      41,154	     999,884	-98,8	     1014,67	-98,7
     41,1569	     1004,99	-99,1	     1019,71	-99,1
     41,1598	     1005,72	-99,2	        1024	-98,9
     41,1628	     1009,29	-99,1	     1027,11	-98,6
     41,1657	     1012,92	-98,9	     1029,83	-98,5
     41,1686	     1014,07	-98,7	     1032,39	-98,3
     41,1716	     1019,73	-98,9	     1035,16	-98,6
     41,1745	      1021,5	-98,7	     1038,32	-98,7
     41,1774	     1025,75	-98,6	     1041,77	-98,5
     41,1804	     1029,41	-98,8	     1045,75	-98,3
     41,1833	     1030,37	-98,9	     1049,48	-98,2
     41,1862	     1032,97	-98,8	     1050,49	-98,3
     41,1891	     1037,98	-98,7	     1054,49	-98,2
     41,1921	     1040,51	-98,3	      1059,7	-98,3
      41,195	     1044,42	-98,1	     1064,27	-98,0
     41,1979	     1046,81	-98,3	     1067,23	-98,2
     41,2009	     1049,71	-98,5	     1069,96	-98,1
     41,2038	     1052,74	-98,5	     1071,81	-97,9
     41,2067	      1056,2	-98,3	     1077,95	-97,4
     41,2097	     1058,89	-97,9	     1080,05	-97,6
     41,2126	     1064,01	-98,2	     1085,63	-97,8
     41,2155	      1068,1	-98,1	     1087,27	-97,8
     41,2185	     1072,12	-98,3	     1090,95	-97,9
     41,2214	     1073,85	-97,8	     1095,81	-97,6
     41,2243	     1079,71	-98,0	     1099,37	-97,3
     41,2273	     1082,81	-98,2	     1104,59	-97,3
     41,2302	     1082,97	-97,9	     1107,99	-97,5
     41,2331	     1088,23	-97,7	     1109,15	-97,1
     41,2361	     1092,58	-97,3	     1113,35	-97,2
      41,239	     1095,71	-97,5	     1118,17	-97,3
     41,2419	     1098,39	-97,8	     1121,98	-97,1
     41,2449	     1103,09	-97,7	     1126,15	-97,1
     41,2478	     1107,01	-97,6	     1130,42	-96,6
     41,2507	     1109,45	-97,3	     1133,93	-96,8
     41,2537	      1113,4	-97,0	     1139,04	-96,7
     41,2566	     1118,06	-97,2	     1141,93	-96,5
     41,2595	      1122,5	-97,5	     1145,67	-97,1
     41,2625	     1127,47	-97,1	     1152,36	-96,5
     41,2654	     1129,88	-97,1	     1155,58	-96,4
     41,2683	     1133,15	-96,9	     1159,52	-96,6
     41,2713	     1137,27	-96,8	      1162,8	-96,7
     41,2742	     1142,09	-97,1	     1169,42	-96,8
     41,2771	     1145,33	-96,7	     1173,57	-96,4
     41,2801	     1149,32	-96,8	     1177,51	-96,0
      41,283	     1153,22	-96,6	     1181,28	-96,0
     41,2859	     1157,02	-96,3	      1185,3	-96,0
     41,2889	     1162,21	-96,5	     1190,66	-96,2
     41,2918	     1165,33	-96,7	     1196,87	-96,2
     41,2947	     1171,58	-96,3	     1201,86	-96,0
     41,2977	     1174,35	-96,3	     1204,51	-95,4
     41,3006	     1178,41	-96,1	     1207,49	-95,4
     41,3035	      1183,6	-95,9	     1214,87	-95,7
     41,3064	      1187,3	-96,2	     1220,93	-95,8
     41,3094	     1191,67	-96,1	     1222,62	-95,8
     41,3123	     1197,43	-96,0	     1228,22	-95,5
     41,3153	     1201,39	-95,9	     1233,14	-95,1
     41,3182	     1204,89	-95,7	     1239,62	-95,1
     41,3211	     1211,28	-96,0	     1244,99	-95,3
      41,324	     1214,24	-95,9	        1250	-95,3
      41,327	     1219,39	-95,5	     1254,19	-95,1
     41,3299	     1226,16	-95,6	     1261,67	-94,9
     41,3328	      1230,8	-95,8	     1265,65	-94,4
     41,3358	     1235,61	-95,6	      1269,8	-94,6
     41,3387	     1240,63	-95,3	     1276,99	-94,8
     41,3416	     1245,43	-95,4	     1282,95	-94,8
     41,3446	     1248,05	-95,4	     1289,91	-94,6
     41,3475	     1253,87	-95,2	     1294,67	-94,0
     41,3504	     1263,52	-95,3	     1299,04	-94,1
     41,3534	     1265,62	-95,1	     1306,28	-94,2
     41,3563	     1269,63	-94,8	     1310,93	-94,3
     41,3592	     1275,88	-95,0	     1318,72	-94,3
     41,3622	      1283,2	-94,4	     1325,62	-94,0
     41,3651	     1288,65	-94,7	     1329,69	-93,7
      41,368	     1293,52	-94,7	     1336,17	-93,4
      41,371	     1298,54	-94,4	     1341,58	-93,6
     41,3739	      1304,5	-94,3	     1348,25	-93,8
     41,3768	     1310,76	-94,2	     1357,53	-93,6
     41,3798	     1316,45	-94,2	     1363,82	-93,2
     41,3827	     1321,11	-94,0	     1369,58	-92,7
     41,3856	        1328	-93,6	     1375,31	-92,9
     41,3886	     1335,19	-93,7	     1383,92	-93,1
     41,3915	     1340,57	-93,9	     1391,38	-92,8
     41,3944	     1344,84	-93,8	     1397,22	-92,7
     41,3974	     1350,14	-93,6	     1405,52	-92,4
     41,4003	     1360,43	-93,6	     1413,02	-92,1
     41,4032	     1365,27	-93,2	     1420,52	-92,2
     41,4062	      1372,2	-93,3	     1429,51	-92,0
     41,4091	     1376,92	-93,6	     1436,05	-92,0
      41,412	     1383,07	-93,4	     1443,36	-91,9
      41,415	     1391,66	-93,0	     1455,27	-91,6
     41,4179	     1398,58	-92,5	      1463,8	-91,6
     41,4208	     1405,09	-92,5	     1473,39	-91,3
     41,4238	     1410,52	-92,7	      1480,7	-91,1
     41,4267	     1420,26	-92,8	     1492,68	-90,8
     41,4296	     1426,51	-92,4	     1502,93	-91,0
     41,4326	     1433,93	-92,2	     1512,42	-91,1
     41,4355	     1441,01	-91,9	     1522,99	-90,7
     41,4384	     1447,86	-92,0	     1533,28	-90,3
     41,4413	     1456,56	-92,3	     1545,46	-89,9
     41,4443	     1463,41	-91,8	     1564,21	-90,1
     41,4472	     1472,21	-91,6	     1598,41	-90,3
     41,4501	     1480,98	-91,5	     1679,11	-90,7
     41,4531	     1489,52	-91,0	     1795,52	-89,8
      41,456	     1497,68	-91,1	     1957,09	-88,3
     41,4589	     1504,81	-90,9	     2154,35	-85,7
     41,4619	     1513,53	-90,6	     2372,59	-81,9
     41,4648	     1523,99	-90,6	     2613,48	-77,0
     41,4677	     1532,99	-90,8	     2793,22	-72,5
     41,4707	     1541,78	-90,7	     2947,71	-68,5
     41,4736	     1550,47	-90,0	     3099,94	-64,1
     41,4765	     1561,02	-89,9	      3210,4	-60,9
     41,4795	     1569,39	-90,1	     3303,21	-57,9
     41,4824	        1580	-90,1	     3383,07	-54,8
     41,4853	     1590,85	-89,8	     3449,26	-52,5
     41,4883	     1598,11	-89,4	     3516,17	-50,2
     41,4912	     1609,06	-88,9	      3561,2	-48,4
     41,4941	     1621,23	-88,8	     3602,98	-46,4
     41,4971	     1633,17	-88,8	     3640,38	-44,8
        41,5	     1645,68	-88,4	     3679,15	-43,0
     41,5029	     1656,86	-88,1	     3704,29	-41,7
     41,5059	     1670,79	-88,2	     3727,43	-40,3
     41,5088	     1681,24	-88,2	     3747,69	-39,0
     41,5117	      1693,1	-87,9	     3764,96	-38,2
     41,5147	     1705,57	-87,6	     3784,99	-37,3
     41,5176	      1719,4	-87,1	     3798,75	-36,5
     41,5205	     1732,39	-87,3	     3810,58	-35,4
     41,5235	     1745,55	-87,0	     3824,23	-33,9
     41,5264	     1759,67	-86,6	     3832,73	-33,5
     41,5293	     1775,33	-86,2	     3843,15	-32,8
     41,5323	     1788,74	-86,3	     3851,43	-31,9
     41,5352	      1806,6	-85,8	     3860,04	-31,2
     41,5381	     1822,33	-85,4	     3867,02	-30,5
     41,5411	     1837,68	-84,9	     3873,68	-30,2
      41,544	     1854,56	-84,5	      3877,5	-29,4
     41,5469	      1872,6	-84,5	     3883,07	-28,8
     41,5499	     1891,83	-83,8	      3887,4	-27,6
     41,5528	     1918,05	-83,6	     3891,28	-27,3
     41,5557	     1936,04	-83,1	     3894,86	-26,8
     41,5587	     1957,82	-83,0	      3897,3	-26,1
     41,5616	        1977	-82,6	     3900,67	-25,8
     41,5645	     1994,88	-82,1	     3903,82	-25,5
     41,5674	     2016,01	-81,6	     3906,73	-24,8
     41,5704	      2038,1	-81,1	     3907,61	-24,1
     41,5733	     2064,34	-80,8	      3908,8	-23,5
     41,5762	     2090,59	-80,1	      3909,8	-23,2
     41,5792	     2122,26	-79,5	     3909,88	-22,9
     41,5821	     2149,42	-78,9	     3910,29	-22,1
      41,585	      2179,4	-78,3	     3911,61	-21,8
      41,588	     2212,56	-77,7	     3914,64	-21,6
     41,5909	     2249,94	-76,4	     3913,82	-21,4
     41,5938	     2289,73	-75,7	     3911,49	-20,9
     41,5968	     2340,64	-75,0	     3911,48	-20,4
     41,5997	     2384,33	-73,9	     3910,51	-19,4
     41,6026	      2435,2	-72,6	     3910,06	-19,5
     41,6056	     2490,76	-71,3	     3908,41	-19,1
     41,6085	     2565,53	-69,2	     3908,41	-18,5
     41,6114	     2635,12	-67,8	     3908,56	-18,2
     41,6144	     2708,53	-65,7	     3907,92	-18,1
     41,6173	      2787,3	-63,4	     3904,85	-18,0
     41,6202	     2890,52	-60,8	     3902,24	-17,3
     41,6232	     2986,42	-58,1	     3901,37	-17,1
     41,6261	     3090,28	-54,6	     3900,41	-17,0
      41,629	     3202,04	-50,9	     3897,85	-16,3
      41,632	     3320,53	-47,2	     3894,83	-15,6
     41,6349	     3460,71	-41,7	     3893,36	-15,6
     41,6378	     3573,04	-36,8	     3893,23	-15,4
     41,6408	     3677,07	-31,8	     3891,12	-14,7
     41,6437	     3767,05	-27,6	     3886,23	-14,5
     41,6466	     3847,24	-22,7	     3884,14	-14,2
     41,6496	      3888,9	-19,2	     3882,22	-14,5
     41,6525	     3908,51	-16,3	     3879,37	-13,8
     41,6554	     3915,59	-15,0	     3876,96	-13,4
     41,6584	     3914,13	-13,8	     3875,34	-13,3
     41,6613	     3905,81	-13,0	      3873,8	-12,7
     41,6642	     3898,02	-12,6	      3870,3	-12,3
     41,6672	     3891,51	-12,7	     3866,46	-12,1
     41,6701	      3886,3	-12,3	      3862,2	-11,9
      41,673	     3881,16	-11,8	     3858,49	-11,9
      41,676	     3875,95	-11,3	     3855,33	-11,4
     41,6789	     3873,25	-11,4	     3852,39	-11,1
     41,6818	     3868,87	-11,1	     3850,84	-11,0
     41,6847	     3865,53	-10,7	     3846,68	-10,8
     41,6877	     3859,65	-10,6	     3842,93	-10,3
     41,6906	     3859,17	-10,7	     3839,78	-10,1
     41,6936	     3854,42	-10,5	      3836,7	-10,1
     41,6965	     3849,24	-9,9	     3831,91	-9,5
     41,6994	     3844,13	-9,9	     3827,16	-9,1
     41,7023	     3839,16	-9,3	     3824,44	-8,9
     41,7053	     3834,84	-9,2	     3820,48	-8,6
     41,7082	     3826,88	-8,7	     3817,59	-8,1
     41,7111	     3824,35	-8,7	     3812,94	-8,1
     41,7141	     3823,65	-8,5	     3810,32	-8,1
      41,717	      3822,4	-8,3	     3806,65	-8,0
     41,7199	     3819,16	-7,8	     3801,07	-7,5
     41,7229	     3815,03	-7,6	     3798,24	-7,1
     41,7258	     3809,48	-7,3	     3795,19	-7,1
     41,7287	     3803,84	-7,1	     3790,94	-6,9
     41,7317	     3798,66	-6,5	     3785,13	-6,4
     41,7346	      3792,9	-6,8	     3781,83	-6,5
     41,7375	      3787,9	-6,4	     3777,16	-6,1
     41,7405	     3788,04	-5,8	      3774,4	-5,7
     41,7434	     3787,99	-5,9	     3771,36	-5,5
     41,7463	     3785,93	-5,2	     3768,21	-5,5
     41,7493	     3781,68	-5,0	     3762,82	-5,2
     41,7522	     3777,64	-4,4	     3754,77	-5,0
     41,7551	     3775,06	-4,3	      3751,1	-4,8
     41,7581	      3767,9	-4,4	     3747,77	-5,0
      41,761	      3762,7	-4,0	     3741,88	-4,6
     41,7639	     3758,24	-3,9	     3737,62	-4,2
     41,7669	     3753,72	-3,6	     3734,14	-3,8
     41,7698	     3746,91	-3,2	     3731,43	-3,9
     41,7727	     3740,48	-3,0	     3727,84	-3,6
     41,7757	     3736,94	-2,7	     3722,06	-3,0
     41,7786	     3734,12	-2,9	     3716,18	-3,1
     41,7815	     3730,39	-2,4	     3713,04	-2,6
     41,7845	     3726,24	-1,9	     3707,67	-2,4
     41,7874	     3720,54	-2,1	     3703,84	-2,6
     41,7903	     3714,58	-1,8	     3699,78	-2,5
     41,7933	     3709,18	-1,3	     3695,86	-2,0
     41,7962	     3706,39	-1,4	     3688,47	-2,0
     41,7991	     3700,33	-1,5	     3682,68	-2,0
     41,8021	     3694,48	-0,9	      3678,4	-1,7
      41,805	     3690,64	-1,0	     3675,13	-1,2
     41,8079	     3686,16	-0,9	     3672,21	-1,4
     41,8109	     3679,15	-0,6	     3666,68	-0,9
     41,8138	     3674,85	-0,1	     3662,62	-0,5
     41,8167	     3669,67	-0,4	     3658,84	-0,3
     41,8196	     3664,98	 0,2	     3654,36	-0,4
     41,8226	     3658,92	 0,4	     3648,59	 0,0
     41,8255	     3655,46	 0,6	     3645,51	 0,2
     41,8284	     3650,28	 0,7	     3640,11	 0,1
     41,8314	     3644,05	 1,2	      3634,9	 0,7
     41,8343	      3638,1	 1,0	     3627,76	 1,1
     41,8372	     3633,59	 1,2	     3626,93	 0,9
     41,8402	      3628,1	 1,7	     3619,18	 0,9
     41,8431	     3622,12	 1,8	     3612,55	 1,5
      41,846	     3617,08	 1,7	     3610,42	 1,4
      41,849	     3613,59	 1,8	     3604,88	 1,9
     41,8519	     3610,39	 2,4	     3599,21	 1,8
     41,8548	     3604,19	 2,4	     3595,03	 2,1
     41,8578	     3598,67	 2,5	     3590,86	 2,1
     41,8607	     3591,16	 2,9	     3585,82	 2,5
     41,8636	      3581,6	 2,7	     3580,97	 2,5
     41,8666	     3574,22	 2,7	     3576,42	 2,5
     41,8695	     3568,36	 2,9	     3570,55	 2,9
     41,8724	     3568,08	 2,7	      3567,8	 3,1
     41,8754	     3567,87	 3,3	     3563,07	 3,2
     41,8783	     3564,99	 3,9	     3555,43	 3,4
     41,8812	     3558,47	 4,2	     3549,75	 3,7
     41,8842	     3553,36	 4,1	     3545,87	 3,6
     41,8871	     3548,83	 4,7	     3540,72	 4,0
       41,89	     3540,12	 5,0	     3535,07	 4,5
      41,893	      3533,8	 4,8	     3531,46	 4,7
     41,8959	     3529,33	 4,9	     3526,06	 4,4
     41,8988	     3524,92	 5,3	     3520,98	 5,1
     41,9018	     3519,63	 5,2	     3516,38	 4,9
     41,9047	     3513,41	 5,4	      3511,6	 5,1
     41,9076	      3509,7	 5,9	     3505,89	 5,6
     41,9106	     3504,74	 5,9	     3501,14	 5,7
     41,9135	      3501,4	 6,2	     3495,27	 5,7
     41,9164	     3493,53	 6,3	     3489,59	 5,9
     41,9194	     3488,94	 6,4	     3484,19	 6,2
     41,9223	     3483,73	 6,6	     3480,01	 6,1
     41,9252	     3479,66	 7,0	     3475,19	 6,6
     41,9282	     3471,34	 6,9	     3470,48	 6,4
     41,9311	     3466,65	 6,8	        3465	 6,5
      41,934	     3461,84	 7,3	     3459,44	 7,0
      41,937	     3455,49	 7,4	     3455,19	 7,2
     41,9399	     3450,87	 7,3	     3450,71	 7,2
     41,9428	     3445,27	 7,9	     3443,19	 7,1
     41,9457	     3439,74	 7,9	     3436,39	 7,5
     41,9487	     3433,93	 7,7	     3432,77	 7,4
     41,9516	     3430,73	 8,2	     3428,93	 8,1
     41,9545	     3422,66	 8,5	     3423,68	 8,1
     41,9575	     3416,21	 8,3	     3418,63	 7,9
     41,9604	     3410,92	 8,6	     3411,52	 8,4
     41,9633	      3405,2	 8,7	     3404,91	 8,5
     41,9663	     3398,81	 8,5	     3401,26	 8,3
     41,9692	     3388,72	 8,8	     3397,63	 8,8
     41,9721	      3382,4	 9,0	     3391,77	 9,0
     41,9751	     3382,91	 8,9	     3385,93	 8,9
      41,978	      3379,4	 9,4	     3379,11	 9,0
     41,9809	      3373,7	10,0	     3374,53	 9,4
     41,9839	     3366,71	 9,8	     3369,46	 9,3
     41,9868	     3356,12	 9,9	     3364,98	 9,6
     41,9897	      3347,3	 9,7	     3360,56	 9,9
     41,9927	     3343,72	 9,7	     3356,44	 9,7
     41,9956	     3337,64	10,1	     3350,48	10,3
     41,9985	     3334,23	10,2	     3345,13	10,0
     42,0015	     3328,17	10,1	     3338,85	10,4
     42,0044	     3326,51	10,6	     3332,26	10,5
     42,0073	     3320,78	10,9	     3328,47	10,6
     42,0103	     3317,88	10,8	     3322,96	10,7
     42,0132	     3311,88	11,3	     3317,38	11,1
     42,0161	     3305,42	11,2	     3313,22	11,0
     42,0191	     3298,87	11,6	     3305,93	11,1
      42,022	     3293,23	12,0	     3301,84	11,8
     42,0249	     3286,72	11,9	     3298,92	11,4
     42,0279	     3283,61	11,9	     3290,38	11,8
     42,0308	     3273,85	12,3	        3286	12,0
     42,0337	      3267,8	12,3	      3279,6	12,1
     42,0367	     3272,73	12,5	      3275,2	12,2
     42,0396	     3269,58	13,0	     3271,48	12,4
     42,0425	     3262,13	12,9	     3265,05	12,4
     42,0455	     3254,06	13,3	     3259,55	12,9
     42,0484	     3247,36	13,6	     3253,94	13,0
     42,0513	     3242,49	13,2	     3249,94	12,8
     42,0543	     3237,41	13,7	     3245,33	13,3
     42,0572	     3230,83	13,6	      3239,5	13,2
     42,0601	     3224,74	13,8	     3233,35	13,2
      42,063	     3218,63	14,1	     3225,63	13,6
      42,066	     3213,94	14,2	     3220,78	13,5
     42,0689	     3209,48	14,2	     3214,31	13,6
     42,0718	      3203,5	14,7	     3209,61	14,1
     42,0748	     3198,55	14,5	      3205,3	14,2
     42,0777	      3193,8	14,7	     3200,35	14,3
     42,0806	     3185,45	15,1	     3195,07	14,7
     42,0836	     3180,22	15,2	      3191,3	14,7
     42,0865	     3175,63	15,2	     3185,34	15,1
     42,0894	     3167,26	15,4	     3180,46	14,8
     42,0924	     3164,75	15,3	     3174,69	14,9
     42,0953	     3158,55	15,5	     3168,45	15,5
     42,0982	     3151,79	15,8	     3164,11	15,4
     42,1012	     3147,37	15,6	     3158,41	15,4
     42,1041	     3142,78	16,0	     3153,12	16,3
      42,107	     3134,98	16,4	     3149,93	15,7
       42,11	     3130,74	16,1	     3143,65	16,2
     42,1129	     3123,24	16,5	     3139,46	16,0
     42,1158	     3117,51	16,1	     3132,22	16,2
     42,1188	      3112,6	16,5	     3123,72	16,5
     42,1217	     3104,48	16,9	     3120,44	16,4
     42,1246	     3099,75	16,5	     3116,48	16,7
     42,1276	     3093,87	16,7	     3110,86	16,9
     42,1305	     3088,09	16,8	     3103,85	16,9
     42,1334	     3082,49	17,0	     3098,22	17,2
     42,1364	     3075,53	17,3	     3094,62	17,3
     42,1393	     3069,96	17,0	     3088,49	17,4
     42,1422	     3065,83	17,2	     3080,44	17,7
     42,1452	     3060,16	17,7	     3077,68	17,5
     42,1481	     3054,12	17,4	     3070,64	17,8
      42,151	     3049,36	17,8	     3064,35	17,9
      42,154	     3041,35	17,8	     3059,69	17,7
     42,1569	     3036,26	17,7	     3054,55	18,1
     42,1598	     3030,07	18,4	     3047,42	18,5
     42,1628	     3026,44	18,1	     3043,29	18,2
     42,1657	     3021,63	18,6	     3037,86	18,7
     42,1686	     3013,85	18,6	     3032,89	18,2
     42,1716	     3008,35	18,5	      3026,8	18,5
     42,1745	     3002,97	18,9	     3019,43	18,9
     42,1774	     2998,24	18,8	     3014,07	18,8
     42,1804	     2992,88	19,2	     3007,99	19,0
     42,1833	     2987,76	19,4	     3004,44	19,0
     42,1862	     2982,78	19,3	      2999,2	19,1
     42,1891	     2976,87	19,7	      2993,7	19,3
     42,1921	     2970,04	19,8	     2987,83	19,1
      42,195	     2963,97	19,9	     2982,13	19,7
     42,1979	     2960,67	20,1	     2976,83	19,5
     42,2009	     2954,34	20,0	     2970,39	19,3
     42,2038	     2948,13	20,3	     2965,95	19,9
     42,2067	     2941,92	20,2	     2959,75	19,9
     42,2097	     2935,81	20,2	     2953,44	20,3
     42,2126	     2932,09	20,8	     2948,07	20,2
     42,2155	     2926,16	20,6	      2942,2	20,3
     42,2185	     2922,38	20,8	     2938,38	20,6
     42,2214	     2916,38	20,7	     2932,81	20,6
     42,2243	     2909,23	21,0	     2926,37	21,0
     42,2273	     2903,27	21,4	     2922,79	20,8
     42,2302	     2897,29	21,2	     2915,58	20,9
     42,2331	     2892,34	21,5	     2911,14	21,4
     42,2361	     2887,49	21,3	     2906,34	21,1
      42,239	     2880,61	21,5	      2900,1	21,2
     42,2419	     2875,13	21,7	        2895	21,2
     42,2449	     2870,26	21,7	     2888,61	21,3
     42,2478	     2865,31	22,2	     2882,43	21,7
     42,2507	     2858,58	22,1	      2877,9	21,4
     42,2537	     2853,82	22,4	      2872,3	21,9
     42,2566	     2847,52	22,4	      2867,6	22,1
     42,2595	     2842,43	22,5	     2863,08	21,8
     42,2625	        2838	22,8	     2854,74	22,3
     42,2654	     2831,91	22,7	     2851,96	22,4
     42,2683	     2825,31	22,7	     2848,05	22,8
     42,2713	        2820	23,3	      2841,7	22,6
     42,2742	     2815,46	22,9	      2835,4	22,8
     42,2771	     2809,36	23,2	        2831	23,0
     42,2801	     2802,04	23,0	     2825,94	23,1
      42,283	      2798,3	23,2	     2820,31	23,3
     42,2859	     2793,79	23,4	      2815,6	23,4
     42,2889	      2786,9	23,6	     2809,48	23,4
     42,2918	     2781,49	23,8	     2803,44	23,5
     42,2947	     2775,97	23,8	     2798,08	23,5
     42,2977	     2770,73	23,9	     2792,63	23,8
     42,3006	     2765,72	24,1	     2787,49	23,6
     42,3035	     2759,47	23,9	     2781,42	23,8
     42,3064	     2754,43	24,6	     2776,19	24,0
     42,3094	     2749,31	24,4	     2770,78	24,2
     42,3123	     2742,93	24,7	     2767,35	24,4
     42,3153	     2735,32	24,8	     2761,14	24,2
     42,3182	     2731,81	24,7	     2754,68	24,7
     42,3211	     2726,56	24,9	     2750,81	24,7
      42,324	     2720,89	24,7	     2745,62	24,9
      42,327	        2717	25,2	     2740,43	24,9
     42,3299	     2711,55	25,2	     2734,65	24,9
     42,3328	     2704,24	25,3	     2728,93	25,3
     42,3358	     2696,61	25,4	     2722,37	24,9
     42,3387	     2693,26	25,3	     2717,93	25,5
     42,3416	     2687,45	25,9	     2714,06	25,5
     42,3446	     2682,05	25,6	     2707,86	25,3
     42,3475	     2677,41	26,1	     2702,97	25,6
     42,3504	     2672,99	25,9	     2696,69	25,6
     42,3534	     2667,09	26,3	     2689,15	26,1
     42,3563	     2659,68	26,4	     2685,02	26,1
     42,3592	      2656,1	26,2	     2681,71	26,4
     42,3622	     2649,92	26,6	     2676,96	26,2
     42,3651	     2644,26	26,3	     2670,62	26,6
      42,368	     2638,82	26,6	     2664,43	26,8
      42,371	     2633,78	26,7	     2659,74	26,6
     42,3739	      2628,2	26,8	     2654,73	26,7
     42,3768	     2622,08	26,8	     2649,15	26,5
     42,3798	     2617,92	27,2	     2643,52	26,9
     42,3827	     2612,12	27,2	     2638,07	26,9
     42,3856	     2607,59	27,1	     2630,75	27,0
     42,3886	     2602,24	27,8	     2627,41	27,2
     42,3915	     2596,68	27,2	     2623,35	27,6
     42,3944	     2591,38	27,9	     2619,21	27,5
     42,3974	     2585,16	27,7	     2611,41	27,5
     42,4003	      2579,7	27,9	     2605,86	28,0
     42,4032	     2572,24	28,1	     2601,89	27,7
     42,4062	     2567,11	27,8	     2596,32	28,1
     42,4091	      2562,2	28,1	     2591,28	27,7
      42,412	     2557,47	28,1	     2584,67	27,9
      42,415	     2553,46	28,6	     2579,77	28,1
     42,4179	     2547,51	28,2	     2575,71	28,2
     42,4208	     2543,79	28,9	     2572,42	28,5
     42,4238	     2537,96	28,7	     2563,99	28,2
     42,4267	     2532,64	28,8	     2559,06	28,7
     42,4296	     2524,61	29,0	     2555,18	28,7
     42,4326	      2520,1	28,8	     2549,89	29,3
     42,4355	     2515,94	29,1	      2545,7	28,8
     42,4384	     2512,75	28,8	     2537,82	29,1
     42,4413	     2505,25	29,2	        2533	29,3
     42,4443	     2498,84	29,0	     2527,72	29,2
     42,4472	     2493,58	29,6	     2523,23	29,2
     42,4501	     2490,25	29,6	     2517,38	29,4
     42,4531	     2484,34	29,6	     2511,11	29,7
      42,456	     2477,74	30,0	      2507,3	29,6
     42,4589	     2474,99	29,8	     2503,19	30,0
     42,4619	     2469,76	30,0	     2498,35	29,8
     42,4648	     2465,57	29,8	     2490,56	30,0
     42,4677	     2457,54	30,1	     2485,35	30,3
     42,4707	     2453,12	30,1	     2480,15	30,1
     42,4736	     2448,26	30,2	     2476,16	30,0
     42,4765	     2442,34	30,3	     2468,48	30,3
     42,4795	     2437,47	30,9	     2465,58	30,5
     42,4824	     2430,39	30,7	     2460,51	30,4
     42,4853	     2427,09	30,8	     2455,02	30,8
     42,4883	     2422,67	30,8	     2449,84	30,9
     42,4912	     2418,78	30,9	     2444,36	31,0
     42,4941	     2413,97	30,8	     2440,89	31,2
     42,4971	     2406,32	30,7	      2433,3	31,2
        42,5	     2399,58	31,2	     2430,16	30,8
     42,5029	     2397,21	31,1	     2426,09	31,3
     42,5059	     2392,25	31,7	     2418,43	31,2
     42,5088	     2387,25	31,4	      2412,3	31,3
     42,5117	     2382,05	31,8	     2409,56	31,6
     42,5147	     2375,55	31,8	     2403,26	31,8
     42,5176	     2370,61	31,9	     2398,73	31,5
     42,5205	      2365,2	31,6	     2393,15	31,9
     42,5235	     2361,29	32,0	     2386,45	31,9
     42,5264	     2355,51	32,1	     2381,06	31,7
     42,5293	      2350,5	31,9	     2377,91	32,0
     42,5323	     2345,99	32,5	     2372,16	31,9
     42,5352	     2342,03	32,5	     2367,26	32,5
     42,5381	     2335,93	32,3	     2361,34	32,3
     42,5411	     2330,18	32,5	     2356,76	32,7
      42,544	     2325,47	32,7	     2352,33	32,5
     42,5469	     2321,14	32,5	     2347,29	32,8
     42,5499	     2315,14	32,9	     2342,12	32,7
     42,5528	     2310,02	32,6	     2336,65	32,9
     42,5557	     2305,89	33,2	     2331,37	32,9
     42,5587	     2300,14	33,1	     2326,33	33,2
     42,5616	     2295,53	33,2	     2321,57	33,2
     42,5645	     2290,93	33,3	     2317,14	33,3
     42,5674	     2285,84	33,6	     2311,64	32,9
     42,5704	     2280,01	33,3	     2305,64	33,5
     42,5733	     2275,81	33,6	      2301,4	33,5
     42,5762	     2270,25	33,7	     2295,24	33,6
     42,5792	     2266,45	33,9	     2291,55	33,6
     42,5821	     2260,37	34,0	     2285,57	33,6
      42,585	     2255,72	34,1	     2283,48	34,0
      42,588	     2251,33	33,6	     2277,45	34,1
     42,5909	     2247,41	34,0	     2271,03	33,7
     42,5938	     2239,95	34,1	     2265,08	33,9
     42,5968	     2236,43	34,2	     2259,34	34,3
     42,5997	     2232,23	34,4	     2254,85	34,2
     42,6026	     2227,58	34,7	     2255,09	34,5
     42,6056	     2220,41	35,0	     2247,32	34,4
     42,6085	     2216,56	34,6	     2241,42	34,8
     42,6114	      2210,6	34,6	     2235,01	34,6
     42,6144	      2208,2	34,7	     2230,47	35,0
     42,6173	     2203,79	34,9	      2227,3	34,6
     42,6202	     2196,44	34,9	     2223,08	35,1
     42,6232	     2191,06	35,4	     2216,13	35,0
     42,6261	     2189,32	35,0	     2211,49	35,3
      42,629	     2183,97	35,3	     2207,24	35,0
      42,632	     2178,29	35,3	     2201,53	35,6
     42,6349	     2173,81	35,5	     2197,13	35,3
     42,6378	     2169,94	35,4	     2191,93	35,6
     42,6408	      2163,3	35,8	     2187,44	35,2
     42,6437	     2159,85	35,8	     2182,35	35,8
     42,6466	     2153,85	36,1	     2177,14	35,7
     42,6496	     2149,69	35,9	      2172,6	36,0
     42,6525	     2144,58	36,0	     2168,33	35,7
     42,6554	     2141,15	35,9	     2163,04	35,8
     42,6584	     2133,55	36,2	     2156,45	35,8
     42,6613	      2129,1	35,9	        2154	36,1
     42,6642	     2125,94	36,5	     2149,19	36,0
     42,6672	     2121,46	36,4	     2142,48	36,5
     42,6701	     2115,02	36,4	     2137,21	36,4
      42,673	     2110,07	36,3	     2134,69	36,5
      42,676	     2105,14	36,7	     2128,35	36,2
     42,6789	     2100,79	36,4	     2122,03	36,7
     42,6818	     2096,65	37,0	     2119,71	36,5
     42,6847	     2094,59	37,1	     2113,69	36,9
     42,6877	     2087,94	37,3	     2109,28	36,9
     42,6906	     2083,58	36,9	     2104,96	36,8
     42,6936	     2078,04	37,0	     2098,85	36,8
     42,6965	     2074,83	37,2	     2094,53	37,1
     42,6994	     2070,98	37,4	     2090,93	37,1
     42,7023	     2064,13	37,4	      2086,9	37,3
     42,7053	     2057,99	37,7	     2083,32	37,3
     42,7082	     2055,63	37,6	     2077,96	37,6
     42,7111	     2051,08	37,7	     2069,11	37,4
     42,7141	     2047,15	37,7	      2064,7	37,4
      42,717	     2040,66	37,8	     2062,28	38,0
     42,7199	     2037,85	38,3	     2059,44	37,8
     42,7229	     2032,48	38,1	     2052,38	38,0
     42,7258	     2027,72	38,0	     2047,84	37,8
     42,7287	     2020,86	37,9	     2041,79	38,1
     42,7317	     2017,72	38,2	     2039,34	37,8
     42,7346	     2012,49	38,2	     2032,89	38,0
     42,7375	      2009,1	38,5	     2029,21	38,2
     42,7405	     2003,32	38,5	     2026,23	38,6
     42,7434	     1998,97	38,6	     2019,88	38,2
     42,7463	     1995,31	38,6	     2013,91	38,6
     42,7493	      1989,7	38,7	     2009,56	38,2
     42,7522	     1985,46	38,3	     2005,18	38,6
     42,7551	     1981,64	39,2	     2002,59	38,8
     42,7581	     1976,69	38,9	     1997,22	38,8
      42,761	     1970,75	38,8	     1991,28	38,7
     42,7639	     1967,32	38,8	     1987,21	38,9
     42,7669	     1964,19	39,2	      1982,5	38,9
     42,7698	      1958,7	39,0	     1980,76	39,1
     42,7727	      1954,7	39,6	     1972,63	39,2
     42,7757	     1950,89	39,3	     1967,99	39,5
     42,7786	     1944,48	39,5	     1962,98	39,4
     42,7815	      1941,5	39,4	     1960,36	39,0
     42,7845	     1936,15	39,5	     1956,79	39,6
     42,7874	     1933,01	39,7	      1952,7	39,6
     42,7903	     1926,58	39,6	     1947,23	39,8
     42,7933	     1923,49	39,9	     1942,12	39,6
     42,7962	     1919,44	39,6	     1937,05	39,8
     42,7991	     1915,16	40,0	     1933,46	39,8
     42,8021	     1909,71	39,9	     1927,51	40,1
      42,805	     1904,11	40,2	     1925,05	39,9
     42,8079	     1902,26	39,9	     1920,35	40,1
     42,8109	     1896,84	40,5	     1913,79	40,0
     42,8138	     1892,05	40,1	     1911,56	40,1
     42,8167	     1887,33	40,3	     1905,29	40,1
     42,8196	     1882,54	40,4	     1901,91	40,3
     42,8226	     1879,94	40,5	     1898,18	40,8
     42,8255	     1875,01	40,9	     1892,53	40,2
     42,8284	      1870,6	40,5	     1888,92	40,6
     42,8314	     1866,75	40,6	     1884,92	40,4
     42,8343	     1861,15	40,6	     1880,55	41,0
     42,8372	     1858,69	41,2	     1876,37	40,8
     42,8402	     1854,77	40,7	     1870,56	40,7
     42,8431	     1849,37	41,2	     1867,53	41,1
      42,846	     1843,16	40,6	     1862,32	41,2
      42,849	     1840,59	41,1	     1857,55	41,2
     42,8519	     1838,27	41,2	     1854,49	41,1
     42,8548	     1832,58	41,1	     1848,35	41,3
     42,8578	     1827,29	41,3	     1843,23	41,2
     42,8607	     1822,09	41,3	     1839,73	41,3
     42,8636	     1819,86	41,4	      1836,8	41,2
     42,8666	     1814,75	41,5	     1834,63	41,8
     42,8695	     1811,82	41,8	     1826,39	41,3
     42,8724	     1808,54	41,5	     1823,02	41,2
     42,8754	     1802,83	41,5	     1817,03	41,7
     42,8783	        1798	41,5	     1815,76	41,7
     42,8812	     1792,24	42,0	     1810,91	42,0
     42,8842	     1790,41	42,2	     1804,87	41,6
     42,8871	     1785,25	41,8	     1801,23	41,9
       42,89	     1780,77	42,6	     1797,48	42,2
      42,893	     1776,15	41,8	     1794,67	42,3
     42,8959	     1773,58	42,5	     1789,63	42,1
     42,8988	      1770,5	42,1	     1785,01	41,9
     42,9018	     1765,02	42,1	     1780,65	42,4
     42,9047	     1760,96	42,4	      1777,4	42,1
     42,9076	     1754,93	42,4	     1772,72	42,7
     42,9106	     1753,01	42,6	     1768,76	42,4
     42,9135	     1749,86	42,7	     1764,65	42,5
     42,9164	     1743,63	42,7	     1760,33	42,4
     42,9194	     1740,11	42,6	     1756,04	42,7
     42,9223	     1737,25	43,0	     1748,85	42,9
     42,9252	     1732,34	42,9	     1744,95	42,5
     42,9282	     1727,81	42,9	     1742,02	42,9
     42,9311	     1725,17	43,0	      1738,6	43,0
      42,934	     1720,79	42,8	     1734,91	43,3
      42,937	      1716,8	43,4	     1731,58	43,0
     42,9399	     1714,54	43,2	     1726,75	42,9
     42,9428	     1707,93	42,9	     1721,56	43,3
     42,9457	     1705,57	43,1	     1718,87	43,2
     42,9487	     1700,02	43,5	     1713,87	43,5
     42,9516	     1696,48	43,5	      1710,3	43,0
     42,9545	     1692,46	43,5	     1706,66	43,3
     42,9575	     1688,29	43,5	     1701,86	43,6
     42,9604	     1684,55	43,3	     1699,32	43,4
     42,9633	     1682,41	43,9	     1694,06	43,6
     42,9663	     1678,98	43,7	     1690,21	43,3
     42,9692	     1672,19	43,6	     1685,97	43,8
     42,9721	     1669,89	43,7	     1683,08	44,0
     42,9751	     1665,71	43,8	     1677,88	44,0
      42,978	     1661,77	44,1	      1673,3	43,8
     42,9809	     1657,89	43,9	     1669,81	43,7
     42,9839	     1653,09	44,1	     1666,56	44,1
     42,9868	     1649,88	44,2	     1663,44	43,9
     42,9897	      1645,4	44,2	     1659,09	44,0
     42,9927	     1643,09	44,3	     1654,43	43,9
     42,9956	     1638,43	44,0	     1651,25	44,1
     42,9985	     1633,33	44,4	      1646,2	44,5
     43,0015	     1630,96	44,7	     1642,43	44,2
     43,0044	     1626,65	44,2	     1638,29	44,5
     43,0073	     1623,75	44,6	     1635,79	44,0
     43,0103	     1617,95	44,3	     1632,17	44,6
     43,0132	     1615,11	44,9	     1626,52	44,8
     43,0161	     1613,36	44,8	      1621,7	44,1
     43,0191	      1607,5	44,6	     1619,22	44,7
      43,022	     1604,01	44,9	     1617,48	44,6
     43,0249	     1600,14	44,8	     1612,25	44,8
     43,0279	     1598,81	45,1	        1608	44,8
     43,0308	     1594,26	44,7	      1605,8	44,8
     43,0337	     1589,41	44,8	     1600,52	45,0
     43,0367	     1586,45	45,4	     1597,18	44,9
     43,0396	     1581,26	45,1	     1593,31	45,0
     43,0425	     1579,52	45,3	     1589,35	45,1
     43,0455	     1576,81	45,1	     1586,68	45,1
     43,0484	     1571,21	45,4	     1582,92	45,5
     43,0513	     1568,36	45,5	     1577,79	45,0
     43,0543	     1564,52	45,2	     1573,11	45,3
     43,0572	     1560,67	45,4	     1572,01	45,6
     43,0601	      1558,7	45,6	     1570,17	45,6
      43,063	        1553	45,8	     1561,87	45,6
      43,066	     1549,76	45,8	     1558,81	45,3
     43,0689	      1546,2	45,4	     1556,06	45,8
     43,0718	     1541,76	45,9	     1550,79	45,8
     43,0748	     1539,84	45,8	        1549	45,7
     43,0777	      1535,3	45,8	     1545,43	45,8
     43,0806	     1533,44	45,9	     1539,86	45,5
     43,0836	     1529,82	46,0	     1537,95	45,8
     43,0865	     1525,34	46,3	     1532,59	45,8
     43,0894	     1521,73	45,8	     1531,62	45,6
     43,0924	     1517,56	45,8	     1527,43	46,2
     43,0953	     1515,64	46,5	     1521,68	45,9
     43,0982	     1509,21	46,2	     1519,52	46,0
     43,1012	     1508,51	46,3	     1514,65	46,0
     43,1041	     1505,49	46,3	     1512,57	46,1
      43,107	     1500,84	46,3	      1508,8	46,6
       43,11	     1496,34	46,5	      1504,6	46,3
     43,1129	      1493,1	46,3	     1501,16	46,3
     43,1158	     1488,65	46,5	     1496,99	46,5
     43,1188	      1487,5	46,8	     1495,41	46,2
     43,1217	     1483,21	46,4	     1490,78	46,4
     43,1246	     1479,53	46,6	     1487,58	46,6
     43,1276	      1476,4	46,6	     1484,26	46,6
     43,1305	     1472,58	46,7	     1479,67	46,6
     43,1334	     1468,09	46,9	     1476,61	46,3
     43,1364	     1467,28	46,7	     1473,82	46,6
     43,1393	     1462,35	46,8	     1469,91	47,0
     43,1422	     1459,01	47,0	     1465,17	46,5
     43,1452	      1455,9	46,8	     1463,21	47,0
     43,1481	     1451,79	47,1	      1460,9	46,9
      43,151	     1447,43	47,0	     1456,41	46,9
      43,154	     1443,27	47,2	     1452,32	47,1
     43,1569	     1442,59	47,3	     1449,65	47,1
     43,1598	     1438,68	47,1	     1445,99	47,3
     43,1628	     1434,34	47,3	     1442,14	47,2
     43,1657	     1432,48	47,4	     1439,49	46,9
     43,1686	     1429,13	47,0	      1437,3	47,4
     43,1716	     1424,41	47,7	     1432,13	47,2
     43,1745	     1422,22	47,5	     1428,75	47,4
     43,1774	     1418,65	47,5	     1425,83	47,5
     43,1804	     1414,53	47,7	     1423,32	47,5
     43,1833	     1413,04	47,6	     1419,41	47,4
     43,1862	     1407,63	47,7	     1417,09	47,4
     43,1891	     1406,08	47,7	     1412,49	47,3
     43,1921	     1403,95	47,5	     1409,97	48,0
      43,195	     1399,89	47,8	     1406,03	47,6
     43,1979	      1395,9	47,8	     1403,36	47,3
     43,2009	     1392,95	47,5	     1398,78	48,0
     43,2038	     1391,48	48,2	     1396,99	47,7
     43,2067	     1387,73	48,0	     1393,21	47,7
     43,2097	     1383,76	47,9	     1389,98	47,9
     43,2126	     1378,81	48,3	     1387,11	48,0
     43,2155	     1378,49	48,1	      1384,7	48,3
     43,2185	     1373,11	47,9	     1379,29	47,9
     43,2214	     1371,18	48,2	     1375,96	48,0
     43,2243	     1370,45	48,3	     1374,62	48,3
     43,2273	     1363,45	48,5	     1370,46	47,9
     43,2302	     1361,39	48,1	     1367,43	48,0
     43,2331	      1358,7	48,1	     1364,51	48,4
     43,2361	     1354,22	48,7	     1359,91	48,1
      43,239	     1352,19	48,3	     1356,95	48,1
     43,2419	     1350,42	48,2	     1354,81	48,6
     43,2449	     1347,48	48,6	      1350,6	48,2
     43,2478	     1346,35	48,5	      1348,1	48,4
     43,2507	     1341,01	48,4	     1347,09	48,7
     43,2537	     1336,82	48,9	     1342,07	48,5
     43,2566	     1335,79	48,7	     1338,91	48,4
     43,2595	     1332,27	48,6	     1336,11	48,7
     43,2625	     1328,34	48,9	      1332,7	48,6
     43,2654	     1326,09	48,8	     1328,96	48,9
     43,2683	     1322,03	48,4	     1327,33	48,6
     43,2713	      1319,7	49,1	      1323,7	48,6
     43,2742	     1316,96	49,0	     1320,08	48,9
     43,2771	     1313,24	49,0	      1317,3	48,8
     43,2801	     1310,88	49,0	     1315,03	48,7
      43,283	     1307,57	49,3	      1312,9	49,2
     43,2859	     1303,18	48,8	     1308,28	48,8
     43,2889	     1303,72	49,1	     1306,14	48,9
     43,2918	     1297,58	49,0	     1303,48	49,2
     43,2947	     1295,55	49,1	        1299	49,1
     43,2977	     1293,64	49,2	     1297,84	48,8
     43,3006	     1290,57	49,1	      1294,3	49,4
     43,3035	     1285,45	49,5	     1289,22	49,1
     43,3064	     1285,58	49,3	     1287,89	49,1
     43,3094	     1282,81	49,3	        1287	49,5
     43,3123	     1278,67	49,4	     1283,47	49,3
     43,3153	     1275,66	49,5	     1279,77	49,1
     43,3182	     1274,23	49,3	     1275,27	49,5
     43,3211	     1271,17	49,4	     1272,91	49,4
      43,324	     1266,88	49,8	     1270,75	49,1
      43,327	     1265,36	49,6	     1269,28	49,6
     43,3299	     1262,17	49,5	     1265,61	49,5
     43,3328	     1261,05	49,7	     1261,73	49,3
     43,3358	     1255,83	49,5	     1259,41	49,6
     43,3387	     1253,51	49,8	     1255,26	49,7
     43,3416	     1251,15	50,2	     1255,33	49,5
     43,3446	      1247,1	49,6	     1250,44	49,7
     43,3475	     1244,05	49,5	     1246,43	49,8
     43,3504	     1244,18	50,0	     1245,13	49,5
     43,3534	     1240,32	49,8	     1243,95	49,8
     43,3563	     1236,01	49,7	     1238,64	49,8
     43,3592	     1233,15	50,1	     1235,94	49,8
     43,3622	     1232,52	50,0	     1234,52	49,8
     43,3651	     1227,93	49,8	     1230,89	50,1
      43,368	     1225,01	50,3	     1227,77	49,8
      43,371	     1222,88	50,0	     1227,43	50,0
     43,3739	     1220,49	50,0	     1223,24	50,2
     43,3768	     1217,37	50,2	     1219,22	49,8
     43,3798	     1214,14	50,0	     1218,39	50,1
     43,3827	     1213,71	50,1	     1216,66	50,5
     43,3856	     1209,89	50,6	     1212,93	50,0
     43,3886	     1206,45	50,3	     1211,37	50,1
     43,3915	     1204,47	49,9	      1207,3	50,5
     43,3944	     1202,98	50,7	     1204,23	50,2
     43,3974	     1199,97	50,5	     1202,02	50,1
     43,4003	     1197,78	50,3	     1200,44	50,5
     43,4032	     1195,47	50,7	     1197,03	50,3
     43,4062	     1191,73	50,7	     1193,68	50,1
     43,4091	      1189,1	50,4	     1191,97	50,7
      43,412	     1186,27	50,7	     1189,05	50,4
      43,415	     1183,15	50,7	     1186,18	50,2
     43,4179	      1182,8	50,7	     1184,36	50,7
     43,4208	     1177,72	50,7	     1180,47	50,7
     43,4238	     1174,56	50,9	     1176,67	50,3
     43,4267	     1174,41	50,9	     1176,33	50,8
     43,4296	     1170,83	50,7	     1172,35	50,6
     43,4326	     1167,98	50,9	     1169,57	50,4
     43,4355	     1165,75	50,8	     1168,69	50,8
     43,4384	      1163,2	50,9	     1164,55	50,8
     43,4413	     1160,28	50,7	     1162,69	50,8
     43,4443	     1160,18	51,2	     1159,82	50,8
     43,4472	     1156,21	50,9	     1157,69	50,7
     43,4501	     1152,85	50,7	      1154,6	50,6
     43,4531	     1150,72	51,3	     1150,75	50,8
      43,456	     1148,39	51,1	     1151,29	50,9
     43,4589	        1147	50,9	      1149,2	51,2
     43,4619	     1145,21	51,1	     1144,42	50,9
     43,4648	      1142,8	51,4	     1141,28	50,7
     43,4677	     1136,33	50,9	     1140,61	51,4
     43,4707	      1135,8	51,3	     1138,11	51,1
     43,4736	     1133,75	51,3	     1135,62	50,7
     43,4765	     1129,46	51,1	     1132,71	51,2
     43,4795	     1127,53	51,2	     1130,54	51,3
     43,4824	     1126,57	51,4	     1126,74	50,9
     43,4853	     1124,94	51,5	     1125,94	51,3
     43,4883	     1122,49	51,2	     1122,47	51,4
     43,4912	     1117,82	51,5	     1120,39	51,3
     43,4941	     1118,19	51,5	     1117,79	51,2
     43,4971	      1115,2	51,5	     1114,17	51,4
        43,5	     1113,97	51,7	     1111,53	51,5

