X-Data [Hz]	Piezo (M - Filtered) [mV]	Phase [Deg]	Piezo (M - Filtered) [mV]	Phase [Deg]	
	002: [07-10-24 10:19]		003: [07-10-24 10:21]	
        41,5	     1006,32	-15,4	     1112,88	-35,7
      41,502	     1049,43	-25,8	     1105,64	-34,1
     41,5039	     1019,98	-12,9	     1110,37	-29,4
     41,5059	     1099,53	-28,3	     1082,33	-29,4
     41,5078	     1071,73	-23,1	     1118,55	-35,3
     41,5098	     1107,07	-35,7	     1049,41	-19,2
     41,5117	      1064,3	-20,1	     1089,12	-31,9
     41,5137	     1051,34	-15,3	      1055,4	-17,0
     41,5156	     1112,48	-33,6	     1070,24	-21,3
     41,5176	     1062,56	-22,5	     1073,27	-21,1
     41,5196	      1135,1	-37,1	     1064,11	-14,5
     41,5215	     1097,55	-32,1	     1116,62	-26,1
     41,5235	     1112,07	-33,6	     1065,69	-17,6
     41,5254	     1119,47	-33,8	     1158,83	-33,3
     41,5274	     1123,01	-20,4	     1109,87	-23,0
     41,5293	     1151,24	-36,4	     1117,43	-32,0
     41,5313	     1067,79	-17,4	     1120,08	-29,6
     41,5332	     1104,47	-27,5	     1076,51	-27,9
     41,5352	     1078,06	-15,8	     1159,57	-36,9
     41,5371	     1109,63	-20,7	     1059,79	-17,9
     41,5391	     1054,98	-21,8	     1110,56	-25,9
     41,5411	     1035,23	-19,1	     1075,63	-16,6
      41,543	     1117,44	-32,2	     1066,02	-17,2
      41,545	     1071,86	-17,8	     1110,56	-22,4
     41,5469	     1156,46	-34,9	      1090,7	-17,2
     41,5489	      1097,5	-22,5	     1098,53	-26,5
     41,5508	     1145,75	-30,7	     1104,65	-18,7
     41,5528	     1133,89	-32,1	     1054,05	-17,9
     41,5547	     1127,77	-26,4	     1126,43	-24,9
     41,5567	     1151,67	-32,4	     1101,93	-16,0
     41,5587	     1101,03	-13,8	     1167,27	-35,1
     41,5606	     1160,51	-22,3	     1125,12	-26,2
     41,5626	     1069,29	-15,7	     1154,09	-31,5
     41,5645	     1092,73	-19,2	     1156,65	-28,3
     41,5665	     1149,24	-28,9	     1124,68	-28,0
     41,5684	     1106,28	-16,8	     1169,51	-33,1
     41,5704	     1128,47	-25,4	     1085,27	-21,1
     41,5723	     1091,67	-17,4	     1155,52	-30,8
     41,5743	     1113,15	-13,7	     1117,75	-16,4
     41,5762	     1136,92	-30,2	     1089,98	-18,5
     41,5782	     1102,93	-17,3	     1154,36	-27,9
     41,5802	     1194,83	-32,4	     1099,22	-16,4
     41,5821	     1169,97	-26,7	     1180,32	-33,0
     41,5841	     1170,14	-29,1	     1136,27	-22,7
      41,586	     1172,63	-32,7	     1147,01	-35,5
      41,588	     1135,79	-25,0	     1173,94	-29,0
     41,5899	     1176,02	-33,0	     1166,03	-27,9
     41,5919	     1129,43	-19,0	     1201,29	-33,9
     41,5938	     1178,08	-28,1	     1106,56	-19,4
     41,5958	     1124,17	-17,1	     1139,63	-28,2
     41,5978	     1146,42	-22,3	     1132,76	-17,7
     41,5997	     1113,67	-25,4	     1143,65	-16,0
     41,6017	     1108,71	-17,0	     1168,71	-27,5
     41,6036	     1164,37	-23,5	     1136,14	-17,0
     41,6056	     1128,87	-15,7	     1185,41	-31,1
     41,6075	     1151,76	-18,4	      1136,9	-18,8
     41,6095	     1149,75	-23,7	     1123,18	-14,6
     41,6114	     1125,21	-16,3	     1212,35	-28,0
     41,6134	     1181,31	-33,0	      1152,9	-18,8
     41,6153	     1129,91	-25,6	     1191,69	-32,4
     41,6173	     1197,23	-28,7	     1184,92	-26,6
     41,6193	     1207,53	-32,2	      1136,5	-28,3
     41,6212	     1190,62	-22,0	     1194,67	-32,2
     41,6232	      1220,9	-29,2	     1135,98	-15,7
     41,6251	     1124,15	-15,4	     1229,34	-30,5
     41,6271	     1159,17	-21,3	     1169,36	-20,4
      41,629	     1168,21	-22,3	     1200,98	-30,7
      41,631	      1149,5	-16,4	     1197,26	-26,8
     41,6329	     1188,54	-30,5	     1168,18	-15,6
     41,6349	     1147,19	-16,8	     1208,77	-31,0
     41,6369	      1223,4	-32,6	     1179,09	-24,2
     41,6388	      1185,2	-30,1	     1212,25	-31,4
     41,6408	     1192,08	-24,7	     1233,14	-32,1
     41,6427	     1213,77	-32,0	     1175,73	-17,8
     41,6447	     1163,98	-20,9	     1210,04	-28,4
     41,6466	     1201,71	-28,2	      1163,8	-16,5
     41,6486	     1171,22	-17,5	     1160,71	-21,1
     41,6505	     1172,35	-17,9	     1185,64	-25,3
     41,6525	     1167,19	-25,0	     1163,05	-15,9
     41,6544	     1162,59	-17,6	     1220,38	-29,6
     41,6564	     1233,45	-33,2	     1198,86	-20,1
     41,6584	     1177,41	-24,7	     1242,66	-31,2
     41,6603	     1224,19	-27,7	     1233,77	-31,5
     41,6623	     1220,53	-30,5	     1192,09	-22,2
     41,6642	     1185,25	-21,2	     1227,85	-34,1
     41,6662	     1244,62	-28,5	      1234,3	-25,7
     41,6681	     1180,15	-19,1	     1204,56	-23,2
     41,6701	     1215,78	-23,2	     1207,94	-21,9
      41,672	     1184,63	-21,7	     1180,89	-18,2
      41,674	     1184,82	-17,6	     1212,13	-29,8
      41,676	     1250,53	-30,5	     1173,99	-16,1
     41,6779	     1217,04	-23,4	     1169,72	-19,3
     41,6799	     1209,57	-17,1	      1257,4	-23,0
     41,6818	     1251,44	-29,7	     1205,18	-16,8
     41,6838	     1203,64	-18,8	     1279,78	-32,2
     41,6857	     1267,11	-31,9	     1219,13	-25,0
     41,6877	     1228,53	-31,3	     1202,51	-28,2
     41,6896	     1232,01	-18,7	     1250,38	-30,8
     41,6916	      1244,4	-29,2	     1223,66	-21,3
     41,6936	     1224,61	-18,0	        1292	-31,4
     41,6955	     1248,32	-28,2	     1275,55	-28,3
     41,6975	     1199,62	-19,8	     1210,72	-22,1
     41,6994	     1202,43	-12,2	      1278,2	-34,2
     41,7014	        1253	-29,7	     1202,38	-12,1
     41,7033	     1211,57	-20,9	     1221,39	-22,3
     41,7053	     1283,19	-37,6	     1238,61	-17,8
     41,7072	     1271,39	-31,5	      1220,5	-15,0
     41,7092	     1248,51	-22,5	     1273,59	-24,8
     41,7111	     1281,55	-31,0	     1217,03	-18,4
     41,7131	      1200,7	-15,4	     1307,95	-31,4
     41,7151	     1227,85	-18,1	     1314,75	-26,7
      41,717	     1259,47	-23,2	     1225,46	-23,1
      41,719	     1259,89	-16,9	     1283,97	-31,4
     41,7209	     1290,68	-27,5	     1233,85	-15,6
     41,7229	     1242,92	-16,7	     1241,97	-21,8
     41,7248	     1303,68	-34,1	     1263,12	-19,2
     41,7268	     1269,54	-27,2	        1224	-12,9
     41,7287	     1292,89	-22,2	     1236,68	-25,8
     41,7307	     1320,48	-31,4	     1259,31	-17,3
     41,7327	     1259,52	-12,7	     1239,87	-14,8
     41,7346	     1296,13	-25,5	     1334,03	-27,6
     41,7366	     1293,89	-28,8	     1294,62	-19,8
     41,7385	        1228	-14,5	     1286,57	-28,6
     41,7405	     1289,89	-24,1	     1308,32	-29,8
     41,7424	     1236,62	-18,4	     1243,02	-19,5
     41,7444	      1264,9	-15,6	     1300,13	-28,8
     41,7463	     1282,41	-23,3	     1255,25	-16,1
     41,7483	     1248,57	-19,7	     1267,93	-21,3
     41,7502	     1319,08	-32,8	     1270,15	-17,4
     41,7522	     1291,04	-29,6	     1248,54	-13,9
     41,7542	     1290,15	-21,9	     1327,27	-31,1
     41,7561	     1340,03	-28,9	      1326,2	-19,4
     41,7581	     1332,37	-29,5	     1315,68	-31,0
       41,76	     1308,16	-25,1	     1374,98	-30,2
      41,762	     1336,56	-30,3	     1268,99	-18,2
     41,7639	     1260,99	-12,8	     1294,44	-28,9
     41,7659	     1324,41	-19,6	     1349,66	-31,8
     41,7678	     1280,82	-21,3	     1291,49	-21,4
     41,7698	     1256,72	-17,5	     1328,78	-28,2
     41,7718	     1339,55	-31,9	     1273,87	-14,7
     41,7737	     1279,39	-18,8	     1304,88	-21,6
     41,7757	     1335,48	-30,3	     1348,69	-18,8
     41,7776	     1321,62	-29,7	     1293,28	-12,8
     41,7796	     1317,05	-20,1	     1350,95	-28,5
     41,7815	     1369,81	-26,6	     1304,53	-21,5
     41,7835	     1291,98	-14,6	     1284,98	-15,3
     41,7854	      1301,1	-20,0	     1370,98	-28,6
     41,7874	     1312,13	-23,6	     1354,67	-20,5
     41,7893	     1293,27	-13,8	      1348,5	-28,5
     41,7913	     1384,55	-28,5	     1374,04	-30,9
     41,7933	     1362,31	-30,3	     1288,23	-19,4
     41,7952	     1346,37	-26,0	     1350,49	-25,4
     41,7972	     1373,65	-31,4	     1354,85	-15,5
     41,7991	     1327,38	-16,5	     1307,87	-14,7
     41,8011	     1385,17	-22,3	     1378,77	-24,2
      41,803	     1397,69	-28,0	     1330,25	-18,0
      41,805	     1326,52	-15,8	     1399,74	-30,2
     41,8069	     1342,81	-19,2	     1381,09	-26,7
     41,8089	     1326,43	-22,9	     1322,52	-19,9
     41,8109	      1304,3	-18,2	     1364,93	-29,2
     41,8128	     1381,87	-29,7	     1351,09	-16,7
     41,8148	     1367,78	-24,4	     1338,55	-15,5
     41,8167	     1405,81	-23,2	     1427,87	-30,1
     41,8187	     1402,08	-27,7	     1392,23	-22,7
     41,8206	      1383,7	-18,9	     1356,73	-25,7
     41,8226	     1408,49	-25,7	     1409,98	-30,0
     41,8245	     1329,35	-17,5	     1334,56	-14,0
     41,8265	     1348,56	-15,8	     1369,61	-22,6
     41,8284	     1431,09	-30,6	     1355,97	-14,5
     41,8304	     1372,43	-19,7	     1327,26	-16,6
     41,8324	      1414,9	-25,1	     1408,99	-26,2
     41,8343	     1430,77	-27,2	     1386,53	-19,4
     41,8363	     1363,43	-17,3	     1387,77	-25,5
     41,8382	     1397,54	-24,9	     1438,25	-29,1
     41,8402	     1364,18	-15,7	     1372,16	-14,9
     41,8421	      1377,3	-14,5	     1395,57	-21,5
     41,8441	     1438,06	-22,5	     1400,07	-17,3
      41,846	      1371,9	-19,3	     1357,29	-15,1
      41,848	     1362,36	-15,4	     1447,92	-28,9
       41,85	      1449,4	-28,7	     1437,28	-23,4
     41,8519	     1375,86	-15,8	     1411,48	-24,3
     41,8539	      1442,4	-24,4	     1453,77	-29,7
     41,8558	     1448,02	-30,6	     1396,71	-17,0
     41,8578	     1382,91	-16,2	      1432,8	-24,0
     41,8597	     1425,08	-24,0	     1426,38	-18,3
     41,8617	     1386,74	-12,7	     1383,52	-14,8
     41,8636	     1408,82	-16,4	     1464,21	-28,7
     41,8656	     1456,15	-31,4	     1447,87	-23,6
     41,8675	     1409,09	-23,1	     1417,29	-20,9
     41,8695	     1444,45	-21,9	     1464,57	-27,5
     41,8715	      1488,5	-28,5	     1420,91	-15,4
     41,8734	     1376,14	-13,2	     1418,08	-18,4
     41,8754	     1397,75	-14,5	     1463,74	-27,8
     41,8773	     1407,81	-21,0	     1417,33	-15,0
     41,8793	      1376,2	-13,4	     1425,13	-15,7
     41,8812	     1479,68	-29,7	     1468,48	-21,7
     41,8832	     1429,89	-22,6	     1417,66	-16,8
     41,8851	     1469,93	-22,0	     1467,63	-27,9
     41,8871	     1490,71	-29,4	     1512,15	-25,7
     41,8891	     1400,38	-11,4	     1414,14	-15,9
      41,891	      1449,9	-17,6	     1440,41	-23,2
      41,893	     1434,02	-25,8	     1437,48	-16,9
     41,8949	     1397,72	-14,9	      1424,3	-13,5
     41,8969	     1499,44	-29,8	     1514,58	-25,3
     41,8988	     1478,04	-26,7	     1453,65	-15,1
     41,9008	     1453,32	-15,6	     1481,55	-24,1
     41,9027	     1503,09	-24,0	     1542,74	-30,2
     41,9047	     1425,43	-15,6	     1443,77	-14,2
     41,9066	     1437,14	-13,6	     1452,46	-18,4
     41,9086	     1493,22	-23,2	     1497,84	-23,9
     41,9106	     1454,89	-17,0	      1459,5	-18,3
     41,9125	     1434,88	-14,6	     1507,15	-27,0
     41,9145	      1514,5	-28,5	     1536,69	-29,1
     41,9164	     1475,14	-22,6	      1468,1	-12,1
     41,9184	     1506,28	-20,2	     1485,19	-17,4
     41,9203	     1440,47	-18,4	     1507,53	-21,3
     41,9223	     1434,11	-12,3	     1464,64	-13,1
     41,9242	     1532,02	-26,2	     1552,73	-26,9
     41,9262	     1509,84	-24,7	     1530,67	-24,4
     41,9282	     1549,37	-23,7	     1504,51	-22,0
     41,9301	     1555,18	-26,8	     1547,07	-26,1
     41,9321	     1537,46	-26,2	     1487,43	-12,2
      41,934	     1519,37	-17,6	     1496,07	-13,6
      41,936	     1558,07	-23,9	     1552,41	-23,0
     41,9379	     1465,26	-13,2	     1510,88	-16,9
     41,9399	     1481,78	-10,6	     1565,68	-26,6
     41,9418	     1550,52	-29,4	     1587,06	-26,8
     41,9438	     1523,33	-24,5	     1483,74	-12,4
     41,9457	      1544,5	-20,6	     1512,82	-24,2
     41,9477	     1526,12	-18,0	     1573,02	-26,3
     41,9497	     1500,41	-12,7	     1504,05	-11,7
     41,9516	     1519,97	-16,8	     1521,55	-17,1
     41,9536	      1520,5	-20,7	     1564,09	-19,8
     41,9555	     1486,87	-14,0	     1528,59	-12,5
     41,9575	     1602,28	-25,0	     1592,78	-27,8
     41,9594	     1595,22	-25,3	     1517,37	-11,6
     41,9614	     1550,53	-15,2	     1525,73	-14,4
     41,9633	     1580,16	-20,1	     1545,43	-22,6
     41,9653	     1528,12	-19,1	     1557,11	-13,9
     41,9673	     1536,39	-14,6	     1528,92	-12,6
     41,9692	     1595,35	-25,5	     1650,87	-23,7
     41,9712	     1569,86	-24,6	     1608,34	-19,4
     41,9731	     1569,75	-15,3	     1554,76	-22,3
     41,9751	      1614,6	-21,7	     1608,82	-24,5
      41,977	      1547,4	-14,9	      1516,1	-14,6
      41,979	     1564,67	-17,2	     1550,55	-16,6
     41,9809	     1583,74	-21,5	     1658,06	-21,3
     41,9829	     1572,78	-14,9	     1595,17	-12,2
     41,9848	      1575,3	-12,9	     1631,08	-22,7
     41,9868	     1604,89	-25,3	     1643,46	-24,2
     41,9888	     1559,03	-19,6	     1574,02	-16,0
     41,9907	      1583,6	-19,7	     1607,84	-20,7
     41,9927	     1635,85	-25,6	     1605,85	-19,4
     41,9946	     1561,69	-11,6	     1571,48	-14,3
     41,9966	     1602,12	-17,2	     1656,51	-26,6
     41,9985	     1585,89	-20,8	     1693,71	-24,6
     42,0005	     1583,72	-16,4	     1575,85	-13,0
     42,0024	        1680	-23,1	     1605,32	-18,1
     42,0044	     1657,04	-24,9	     1652,86	-17,9
     42,0064	     1615,54	-10,2	     1608,37	-13,0
     42,0083	     1657,52	-16,6	     1675,64	-26,2
     42,0103	     1611,96	-20,4	     1697,29	-24,0
     42,0122	      1575,2	-16,4	     1654,06	-17,3
     42,0142	     1674,26	-24,7	     1665,05	-24,6
     42,0161	     1673,86	-26,9	     1707,76	-26,5
     42,0181	     1633,87	-14,3	     1618,26	-10,8
       42,02	     1684,04	-23,7	     1617,08	-14,6
      42,022	     1595,27	-12,0	     1673,03	-20,5
     42,0239	     1613,02	-11,1	     1644,65	-13,8
     42,0259	     1692,24	-23,6	     1697,63	-26,1
     42,0279	     1671,62	-19,8	     1712,77	-24,4
     42,0298	     1653,14	-15,1	     1619,28	-12,8
     42,0318	     1693,53	-24,0	     1668,02	-19,4
     42,0337	        1615	-14,1	     1681,25	-12,1
     42,0357	     1654,21	-11,2	     1644,18	-12,0
     42,0376	     1708,33	-18,1	     1736,82	-23,1
     42,0396	     1660,75	-18,0	     1725,41	-22,0
     42,0415	     1636,33	-11,6	     1673,97	-13,1
     42,0435	      1716,1	-22,8	     1696,17	-20,8
     42,0455	     1684,49	-19,5	     1723,36	-24,2
     42,0474	     1700,04	-15,3	     1671,47	-12,2
     42,0494	     1720,18	-19,8	     1682,47	-14,8
     42,0513	     1667,23	-16,0	     1716,35	-17,0
     42,0533	      1675,4	-12,3	     1688,04	-14,4
     42,0552	     1772,17	-23,1	     1750,62	-21,4
     42,0572	     1716,51	-20,1	      1779,3	-25,3
     42,0591	     1738,84	-16,0	     1683,96	-9,9
     42,0611	     1766,16	-22,6	      1698,6	-12,2
      42,063	     1672,16	-10,6	     1781,45	-20,3
      42,065	     1699,94	-9,6	     1715,87	-15,9
      42,067	     1729,88	-16,8	     1744,84	-20,6
     42,0689	     1695,11	-14,4	     1792,72	-22,5
     42,0709	     1707,69	-10,1	     1732,96	-12,8
     42,0728	     1788,85	-23,2	      1724,1	-15,0
     42,0748	     1745,86	-21,2	     1782,49	-16,3
     42,0767	      1707,5	-14,4	     1740,23	-15,2
     42,0787	     1801,89	-24,0	     1789,18	-22,4
     42,0806	     1788,54	-24,9	     1823,74	-22,4
     42,0826	     1738,54	-11,6	     1703,08	-10,6
     42,0846	     1786,42	-18,2	     1701,33	-15,8
     42,0865	      1718,9	-11,4	     1792,09	-17,5
     42,0885	     1716,07	-8,3	     1761,56	-14,0
     42,0904	     1845,83	-23,5	     1771,33	-11,6
     42,0924	     1811,51	-21,9	     1879,98	-21,7
     42,0943	     1784,87	-14,2	     1842,62	-14,6
     42,0963	     1832,83	-18,4	     1795,33	-18,8
     42,0982	     1776,87	-16,6	     1830,22	-24,0
     42,1002	     1736,19	-12,1	     1772,58	-9,7
     42,1021	     1830,51	-20,1	      1762,1	-8,2
     42,1041	     1815,58	-19,4	     1854,25	-23,0
     42,1061	     1785,76	-13,9	     1758,62	-10,9
      42,108	     1856,79	-18,4	     1805,91	-12,2
       42,11	     1865,16	-19,8	     1834,63	-19,9
     42,1119	     1778,18	-9,8	     1794,93	-11,7
     42,1139	     1802,73	-12,5	     1786,57	-13,8
     42,1158	     1813,63	-19,9	     1869,29	-20,3
     42,1178	     1779,31	-13,3	      1872,7	-18,9
     42,1197	     1861,17	-20,7	     1796,63	-11,0
     42,1217	      1862,1	-21,2	     1818,82	-16,7
     42,1237	     1853,84	-20,2	     1820,17	-12,2
     42,1256	     1849,36	-11,7	      1792,6	-10,5
     42,1276	     1873,26	-17,5	     1883,23	-22,8
     42,1295	     1818,23	-12,8	      1909,8	-22,8
     42,1315	      1806,4	-9,3	     1837,73	-10,3
     42,1334	     1910,94	-20,5	     1923,61	-23,3
     42,1354	     1827,68	-12,4	     1935,76	-17,2
     42,1373	     1834,19	-11,3	     1894,13	-14,8
     42,1393	     1869,12	-16,0	     1896,77	-18,4
     42,1413	     1860,16	-14,9	     1948,92	-23,1
     42,1432	      1844,2	-9,0	     1848,05	-9,6
     42,1452	     1953,47	-19,8	     1855,89	-13,3
     42,1471	     1942,36	-21,9	     1954,54	-19,3
     42,1491	     1870,59	-9,4	     1940,14	-13,2
      42,151	     1895,14	-13,1	     1898,32	-14,0
      42,153	     1912,27	-16,2	     1948,49	-19,9
     42,1549	     1867,64	-11,5	     1940,88	-12,0
     42,1569	     1953,66	-13,6	     1925,93	-9,8
     42,1588	     1982,03	-18,8	     2004,33	-20,4
     42,1608	     1897,96	-11,5	     2001,69	-18,2
     42,1628	     1896,98	-9,9	     1901,57	-16,0
     42,1647	     1970,09	-20,4	     1949,96	-18,0
     42,1667	     1939,51	-16,7	      1948,8	-11,6
     42,1686	     1966,55	-11,8	     1932,25	-9,0
     42,1706	     1992,71	-18,1	     2023,06	-19,3
     42,1725	      1900,2	-9,4	     2028,06	-19,9
     42,1745	      1886,2	-7,7	     1946,04	-7,6
     42,1764	     1984,85	-18,6	     1946,11	-9,5
     42,1784	      1971,7	-18,2	     2015,92	-15,2
     42,1804	        1918	-8,5	     1965,82	-13,2
     42,1823	     1962,62	-14,6	     2008,09	-20,1
     42,1843	     1935,46	-13,2	     2063,08	-20,8
     42,1862	      1914,9	-10,3	      2067,3	-19,7
     42,1882	     1935,67	-9,7	     1969,31	-10,6
     42,1901	     2017,66	-18,6	     1978,76	-13,5
     42,1921	     1975,75	-17,4	     2034,27	-11,5
      42,194	     1993,57	-10,8	     2006,78	-13,2
      42,196	     2044,24	-18,2	     2052,09	-19,5
     42,1979	     1946,69	-7,1	     2045,44	-7,5
     42,1999	     1964,44	-6,4	     2009,17	-8,7
     42,2019	     2066,28	-17,7	     2085,78	-18,3
     42,2038	     1996,57	-13,8	     2122,42	-17,2
     42,2058	     1971,48	-8,4	     2021,77	-7,1
     42,2077	     2067,81	-18,3	     2026,67	-10,5
     42,2097	     2075,33	-18,2	     2059,19	-16,5
     42,2116	      1997,1	-9,0	     2031,71	-10,4
     42,2136	     2015,13	-6,1	     2030,99	-10,6
     42,2155	     2069,76	-18,8	     2120,88	-21,1
     42,2175	     2015,19	-14,2	     2141,78	-18,0
     42,2195	     2095,76	-13,0	     2045,96	-7,0
     42,2214	     2128,93	-16,7	     2062,53	-13,2
     42,2234	     2030,91	-6,8	     2140,23	-15,7
     42,2253	     2054,28	-7,3	     2121,99	-10,6
     42,2273	     2150,46	-18,0	     2126,18	-15,1
     42,2292	     2117,74	-17,7	     2172,05	-17,2
     42,2312	     2045,33	-4,0	     2113,28	-5,6
     42,2331	     2073,31	-7,9	     2081,91	-6,0
     42,2351	     2116,17	-18,4	     2182,74	-19,3
      42,237	     2070,74	-11,2	     2209,74	-12,2
      42,239	     2125,02	-10,3	     2113,22	-9,4
      42,241	     2148,43	-16,3	     2141,78	-11,5
     42,2429	     2090,62	-8,6	     2185,21	-12,9
     42,2449	     2092,81	-8,2	     2152,22	-8,4
     42,2468	     2189,22	-19,3	     2159,54	-14,1
     42,2488	     2153,57	-14,3	     2204,99	-18,9
     42,2507	     2132,34	-4,8	     2144,01	-5,4
     42,2527	     2189,87	-11,0	     2135,79	-8,5
     42,2546	      2157,9	-10,7	     2236,67	-13,0
     42,2566	     2127,07	-7,3	     2226,54	-9,3
     42,2586	     2207,06	-10,4	     2188,61	-9,4
     42,2605	     2230,48	-12,3	     2217,88	-12,3
     42,2625	      2137,1	-4,6	     2231,19	-6,6
     42,2644	     2144,72	-5,9	     2203,13	-4,7
     42,2664	     2232,04	-16,3	      2246,2	-16,5
     42,2683	     2205,52	-13,2	      2276,3	-16,5
     42,2703	     2145,55	-10,9	     2200,84	-5,3
     42,2722	      2229,5	-10,6	     2208,67	-7,3
     42,2742	     2253,42	-13,8	     2312,24	-17,8
     42,2761	     2189,66	-8,1	     2316,09	-15,5
     42,2781	     2268,43	-11,9	     2193,28	-5,0
     42,2801	      2316,3	-14,9	     2232,28	-13,0
      42,282	     2290,96	-17,6	     2296,72	-10,5
      42,284	     2249,73	-5,7	     2278,53	-8,0
     42,2859	     2279,41	-9,0	     2336,14	-13,1
     42,2879	     2262,14	-9,9	     2360,99	-13,8
     42,2898	      2240,7	-4,0	     2297,47	-5,2
     42,2918	     2325,03	-12,1	     2289,04	-5,1
     42,2937	     2340,11	-11,8	     2414,59	-15,4
     42,2957	     2246,75	-2,4	     2379,77	-11,7
     42,2977	     2255,73	-1,8	     2284,97	-7,8
     42,2996	      2348,3	-14,4	     2300,89	-8,1
     42,3016	     2317,87	-14,2	     2346,43	-13,5
     42,3035	     2303,89	-5,6	     2344,52	-3,4
     42,3055	     2379,61	-8,1	     2314,23	-5,7
     42,3074	     2410,55	-13,2	     2396,77	-12,7
     42,3094	     2317,34	-8,7	     2412,62	-13,3
     42,3113	     2285,78	-4,0	     2326,21	-5,4
     42,3133	     2391,86	-14,0	     2413,74	-15,1
     42,3153	     2364,55	-12,8	     2432,27	-14,0
     42,3172	     2312,03	-5,5	     2366,89	-3,7
     42,3192	     2356,65	-3,4	     2371,28	-5,2
     42,3211	      2380,7	-11,9	     2477,55	-11,1
     42,3231	     2356,56	-8,1	      2464,3	-5,9
      42,325	     2416,72	-2,4	     2426,56	-2,5
      42,327	     2464,39	-8,3	     2440,45	-10,5
     42,3289	     2354,14	-3,8	     2468,61	-11,8
     42,3309	     2496,44	 5,9	     2406,58	-2,0
     42,3328	     2464,86	-11,7	     2390,96	-2,3
     42,3348	     2470,89	-14,6	     2508,46	-14,5
     42,3368	     2328,19	-1,5	     2519,96	-9,4
     42,3387	     2349,64	-3,3	     2435,03	-4,7
     42,3407	     2477,75	-10,5	     2444,77	-6,5
     42,3426	     2445,42	-10,6	     2533,68	-7,5
     42,3446	     2421,94	-7,0	     2496,51	-6,2
     42,3465	     2463,46	-7,3	     2499,52	-1,0
     42,3485	     2515,22	-9,9	     2559,33	-10,1
     42,3504	     2445,68	-4,2	     2587,07	-13,0
     42,3524	     2451,35	-4,1	     2480,79	-2,2
     42,3544	      2576,1	-8,7	     2557,61	-9,0
     42,3563	     2583,16	-13,8	     2574,82	-13,8
     42,3583	     2480,41	-3,1	     2508,62	-1,9
     42,3602	     2502,94	-2,4	     2517,45	-0,8
     42,3622	     2582,69	-9,1	     2546,73	-4,0
     42,3641	     2557,92	-10,2	     2622,04	-6,7
     42,3661	     2535,97	 0,4	     2572,71	-1,9
      42,368	     2581,59	-4,8	     2575,94	-7,2
       42,37	     2551,44	-8,1	      2615,2	-8,1
     42,3719	     2536,39	-5,6	     2604,47	 0,7
     42,3739	     2581,48	-0,2	     2584,66	 0,0
     42,3759	     2612,68	-6,7	     2659,16	-9,1
     42,3778	     2557,65	-7,4	     2661,04	-7,0
     42,3798	     2535,73	-2,2	     2614,62	-0,4
     42,3817	     2627,94	-6,6	     2611,32	 0,8
     42,3837	     2654,58	-7,2	     2698,88	-10,1
     42,3856	     2529,24	-4,8	     2703,73	-8,6
     42,3876	     2549,09	-0,9	     2689,11	-2,2
     42,3895	     2685,76	-9,2	     2645,04	-3,6
     42,3915	     2666,47	-10,4	     2685,78	-6,4
     42,3935	      2616,2	-0,6	     2711,47	-4,8
     42,3954	     2651,16	-0,8	     2691,74	 0,0
     42,3974	     2680,85	-6,6	     2722,41	-5,3
     42,3993	     2659,04	-5,8	      2754,6	-9,7
     42,4013	     2706,86	 3,3	      2683,8	 2,1
     42,4032	     2742,69	-4,3	     2684,18	 0,3
     42,4052	     2756,11	-5,8	     2801,79	-6,5
     42,4071	     2659,77	 1,9	     2786,99	-5,7
     42,4091	     2662,15	 0,2	     2707,91	 2,2
      42,411	     2776,33	-5,0	     2713,48	 1,2
      42,413	     2765,87	-6,8	     2829,21	-7,5
      42,415	     2663,51	 3,3	     2846,46	-4,2
     42,4169	      2684,6	 2,8	     2756,57	 3,8
     42,4189	     2769,11	-7,2	     2759,47	-0,0
     42,4208	     2769,36	-6,7	     2892,38	-4,0
     42,4228	     2697,08	 4,2	     2878,16	-1,6
     42,4247	     2803,22	-6,6	     2790,22	 0,9
     42,4267	     2790,67	-5,5	     2838,29	-1,2
     42,4286	     2761,88	-2,7	     2899,75	-0,4
     42,4306	     2814,33	-0,6	     2888,01	 2,0
     42,4326	     2878,63	-2,4	     2870,22	-1,8
     42,4345	     2800,58	-0,8	     2908,13	-3,7
     42,4365	     2779,25	 3,0	     2918,75	 0,4
     42,4384	     2897,34	-3,3	      2873,5	 2,5
     42,4404	     2911,33	-3,8	     2925,37	-7,2
     42,4423	     2818,86	-1,2	     2964,36	-6,1
     42,4443	     2796,44	 1,2	     2996,25	-5,3
     42,4462	      2894,8	 0,2	      2914,4	 1,7
     42,4482	     2932,66	-5,5	     2926,44	 1,5
     42,4501	     2824,66	 0,2	      3040,2	-3,1
     42,4521	     2856,99	 3,7	     3053,64	-4,6
     42,4541	     2973,61	-3,4	     2956,49	 3,1
      42,456	     2969,13	-2,9	     2958,14	 1,2
      42,458	     2945,24	-1,5	     3044,78	-1,9
     42,4599	     2933,23	 4,1	     3046,49	-0,7
     42,4619	     2966,77	 1,6	     2964,38	 2,2
     42,4638	     2982,29	-2,7	     2979,35	 3,1
     42,4658	     2903,19	 8,3	     3088,46	 1,9
     42,4677	     2942,73	 3,1	     3072,79	-0,4
     42,4697	     3033,38	-3,3	     3038,66	 0,5
     42,4717	     3035,17	-2,1	     3084,37	-0,9
     42,4736	     2962,36	 8,8	     3112,19	 3,8
     42,4756	     3005,46	 5,3	     3088,36	 7,3
     42,4775	      3064,3	-2,6	     3113,74	 0,3
     42,4795	     3026,12	 2,6	     3148,32	-0,8
     42,4814	     3012,18	 3,9	     3170,63	-1,0
     42,4834	     3086,86	 4,7	     3100,52	 8,7
     42,4853	     3098,73	 0,6	      3086,9	 5,1
     42,4873	     3017,17	 3,1	     3220,77	-0,1
     42,4892	     3039,57	 6,0	      3214,9	 3,0
     42,4912	     3145,88	 5,4	     3121,66	 7,4
     42,4932	     3087,93	 3,6	     3139,71	 6,4
     42,4951	     3078,96	 5,5	     3255,68	 1,9
     42,4971	     3057,23	 8,1	     3257,04	 4,4
      42,499	     3190,42	 0,1	     3182,44	 6,6
      42,501	     3203,69	 0,5	      3212,1	 2,2
     42,5029	     3134,36	 7,5	     3264,76	 2,7
     42,5049	     3130,02	 8,7	     3277,32	 9,8
     42,5068	     3253,51	 0,5	     3252,65	 8,6
     42,5088	     3226,66	 2,0	     3266,66	 3,0
     42,5108	     3156,12	 8,1	     3302,69	 3,8
     42,5127	     3175,44	11,6	     3297,48	 8,6
     42,5147	     3272,01	 0,9	     3271,02	 9,9
     42,5166	      3252,6	 0,8	     3323,98	 2,4
     42,5186	     3202,65	 8,8	     3361,65	 2,1
     42,5205	     3251,71	 8,5	     3320,42	 9,9
     42,5225	     3284,72	 2,6	     3316,57	 9,6
     42,5244	     3281,55	 1,0	     3392,53	 3,4
     42,5264	      3241,3	 9,4	     3429,13	 4,6
     42,5283	     3286,21	 8,9	     3341,32	11,8
     42,5303	     3322,51	 5,4	     3335,28	10,0
     42,5323	     3321,11	 3,6	     3419,31	 3,6
     42,5342	      3290,6	12,4	     3443,73	 2,7
     42,5362	     3307,57	10,2	     3356,69	11,8
     42,5381	      3396,3	 4,1	     3380,75	10,4
     42,5401	     3388,25	 6,2	     3401,87	 8,2
      42,542	     3348,44	14,7	      3503,6	 8,8
      42,544	     3368,33	11,1	      3510,5	 7,9
     42,5459	        3398	 5,3	     3430,11	11,2
     42,5479	        3365	 6,3	     3555,26	 7,7
     42,5499	     3359,11	 8,1	     3576,42	 7,0
     42,5518	     3430,67	11,2	     3463,59	13,8
     42,5538	     3472,15	 9,2	     3470,37	12,5
     42,5557	     3413,15	 9,4	     3495,16	10,4
     42,5577	     3410,61	10,8	      3597,5	 8,7
     42,5596	        3481	15,2	     3594,17	10,6
     42,5616	     3504,45	 6,8	     3525,21	11,3
     42,5635	     3498,84	 9,1	      3551,1	10,8
     42,5655	     3480,68	17,0	     3640,75	11,2
     42,5674	     3525,65	15,4	     3656,04	13,9
     42,5694	     3561,14	14,5	     3553,61	15,0
     42,5714	     3516,66	 8,4	     3575,93	12,5
     42,5733	     3497,98	13,9	     3707,61	13,5
     42,5753	     3561,29	14,9	     3702,55	12,8
     42,5772	     3606,89	13,2	     3592,75	15,9
     42,5792	     3537,45	12,9	     3625,94	14,6
     42,5811	     3548,94	14,9	     3719,72	12,5
     42,5831	     3614,24	16,7	     3711,96	16,1
      42,585	     3651,67	 8,7	     3654,99	14,6
      42,587	     3646,51	13,5	     3694,98	14,6
      42,589	     3629,91	11,6	     3780,31	13,8
     42,5909	     3648,88	17,8	     3767,84	17,2
     42,5929	     3679,16	17,8	     3690,44	16,4
     42,5948	     3644,03	12,4	     3727,86	15,5
     42,5968	     3643,51	16,2	     3825,73	14,9
     42,5987	     3699,24	18,7	     3825,54	18,3
     42,6007	     3725,22	18,2	     3812,32	20,9
     42,6026	     3713,38	12,2	     3759,69	16,5
     42,6046	     3708,97	17,1	     3800,97	13,7
     42,6065	     3722,06	20,0	     3881,95	17,6
     42,6085	      3739,2	19,1	     3877,39	22,7
     42,6105	     3740,48	15,5	     3841,58	18,8
     42,6124	     3720,24	15,0	     3852,52	16,6
     42,6144	     3746,64	20,7	     3938,01	20,0
     42,6163	     3794,59	18,8	     3907,69	23,0
     42,6183	     3818,85	18,1	      3880,8	21,5
     42,6202	     3779,65	16,3	     3936,89	15,2
     42,6222	     3783,96	19,7	     3966,25	17,0
     42,6241	      3836,5	21,3	     3942,18	23,4
     42,6261	      3860,3	15,6	     3937,03	24,1
     42,6281	     3850,01	18,0	     3962,39	17,0
       42,63	     3830,16	20,7	     3991,08	17,9
      42,632	     3905,55	22,3	     4006,19	21,3
     42,6339	     3950,85	18,1	     3972,75	25,7
     42,6359	      3889,3	20,6	     3987,85	20,1
     42,6378	      3880,2	22,0	     4023,45	19,5
     42,6398	     3933,47	24,3	     4045,04	25,4
     42,6417	     3934,15	24,7	     4029,02	27,3
     42,6437	      3904,5	21,7	      4034,5	21,7
     42,6456	     3899,37	21,3	     4054,44	23,9
     42,6476	     3953,28	23,0	     4107,55	25,1
     42,6496	     3999,72	24,2	      4100,3	26,9
     42,6515	     4034,42	24,1	      4047,4	26,0
     42,6535	     3962,83	24,2	     4076,11	22,3
     42,6554	     3963,43	24,6	     4183,19	23,9
     42,6574	     4026,86	27,5	     4162,29	26,3
     42,6593	     4066,92	25,7	     4099,09	23,5
     42,6613	     4040,79	22,4	     4116,11	25,6
     42,6632	     4036,45	22,4	     4208,21	24,0
     42,6652	     4068,21	30,3	     4187,18	26,3
     42,6672	     4089,69	29,3	     4112,04	29,0
     42,6691	      4111,3	22,0	     4109,81	28,4
     42,6711	     4083,53	24,5	     4234,85	25,2
      42,673	     4069,23	30,6	     4260,77	26,6
      42,675	     4097,72	31,4	     4191,58	31,8
     42,6769	     4155,52	25,6	     4160,52	31,8
     42,6789	     4145,19	23,5	     4242,15	22,9
     42,6808	     4115,96	31,5	     4268,72	25,3
     42,6828	     4127,11	32,9	     4295,38	26,9
     42,6847	     4190,01	23,5	     4191,19	31,0
     42,6867	     4190,89	26,4	     4187,27	32,5
     42,6887	     4184,22	24,3	     4283,74	29,5
     42,6906	     4155,18	34,5	     4311,29	28,2
     42,6926	     4185,15	31,5	     4243,52	33,8
     42,6945	     4248,89	27,7	     4253,79	34,1
     42,6965	     4261,79	28,4	     4282,28	28,5
     42,6984	     4172,13	34,3	     4305,82	28,7
     42,7004	     4192,43	34,2	     4335,66	34,8
     42,7023	     4300,64	29,0	     4315,19	35,2
     42,7043	     4297,59	28,4	     4315,55	30,5
     42,7063	     4194,29	33,9	     4324,79	30,3
     42,7082	      4204,8	34,0	     4371,71	37,9
     42,7102	      4318,2	34,3	     4374,54	36,8
     42,7121	      4326,9	30,2	     4305,32	34,4
     42,7141	     4323,22	28,4	     4321,18	31,6
      42,716	     4226,36	33,0	     4418,88	34,5
      42,718	     4234,32	34,0	     4429,44	33,6
     42,7199	     4366,94	34,3	     4325,61	37,9
     42,7219	      4362,5	31,0	     4339,01	36,1
     42,7239	     4274,57	36,5	     4429,36	33,2
     42,7258	     4298,11	35,9	     4452,25	33,6
     42,7278	     4404,98	33,0	      4361,7	40,0
     42,7297	      4438,4	34,6	     4373,18	38,4
     42,7317	     4341,34	32,0	     4468,29	33,8
     42,7336	     4337,68	32,1	     4475,62	33,7
     42,7356	      4376,4	38,6	      4410,3	40,5
     42,7375	     4416,24	37,8	     4401,34	39,2
     42,7395	     4393,81	34,6	     4413,39	36,1
     42,7414	     4386,14	34,0	     4448,87	32,6
     42,7434	      4375,5	35,9	     4476,03	34,8
     42,7454	     4418,69	39,7	     4441,34	42,4
     42,7473	      4414,9	40,1	     4421,34	40,2
     42,7493	      4434,3	33,4	     4486,29	36,5
     42,7512	     4426,81	33,3	      4489,1	38,0
     42,7532	     4412,19	40,9	     4510,87	40,5
     42,7551	     4423,76	40,7	      4490,6	42,9
     42,7571	     4475,01	36,7	     4442,57	40,0
      42,759	     4456,34	37,7	     4444,85	42,1
      42,761	     4361,35	41,8	     4542,82	38,5
      42,763	     4372,76	42,7	     4547,44	41,9
     42,7649	     4502,41	39,6	     4461,34	44,0
     42,7669	     4487,59	41,7	     4486,01	40,6
     42,7688	     4397,09	40,6	     4491,01	41,7
     42,7708	     4389,93	45,2	     4504,07	42,7
     42,7727	     4498,23	44,0	     4497,01	46,8
     42,7747	     4494,45	46,9	      4463,9	47,5
     42,7766	     4518,81	41,9	     4478,87	41,1
     42,7786	     4419,79	44,6	     4486,39	41,7
     42,7805	     4416,85	47,2	     4521,73	46,6
     42,7825	      4512,8	45,5	      4498,5	51,0
     42,7845	     4540,55	48,5	     4422,76	48,7
     42,7864	      4488,4	41,4	     4437,03	46,4
     42,7884	     4470,03	44,3	     4540,64	47,6
     42,7903	     4474,69	50,6	     4523,81	48,8
     42,7923	     4503,17	48,9	     4510,91	50,4
     42,7942	        4515	46,6	     4424,67	50,5
     42,7962	     4483,15	47,1	     4425,72	48,7
     42,7981	     4481,46	46,3	     4505,82	46,7
     42,8001	     4481,05	51,5	     4518,48	47,1
     42,8021	        4498	49,5	     4447,48	50,4
      42,804	     4563,17	49,2	     4448,58	52,3
      42,806	     4570,07	47,7	     4494,92	47,1
     42,8079	     4442,87	47,4	     4524,77	49,1
     42,8099	     4537,17	54,0	     4479,78	52,5
     42,8118	     4539,72	50,9	     4447,21	54,0
     42,8138	     4515,52	46,5	     4450,52	50,0
     42,8157	     4501,16	47,7	     4469,28	47,5
     42,8177	     4452,81	53,7	     4539,84	51,6
     42,8196	     4492,58	50,6	     4519,99	53,3
     42,8216	     4557,68	51,6	     4494,03	53,5
     42,8236	     4530,86	50,0	     4409,44	53,8
     42,8255	     4525,18	52,9	     4420,97	51,1
     42,8275	     4417,04	53,5	     4515,03	51,2
     42,8294	     4428,53	54,1	     4510,13	54,5
     42,8314	     4532,91	54,2	     4405,59	54,7
     42,8333	     4549,98	56,0	     4389,74	59,1
     42,8353	     4461,83	54,1	     4482,02	50,8
     42,8372	     4441,42	55,2	      4472,2	51,1
     42,8392	     4489,68	56,5	     4471,75	57,5
     42,8412	      4497,7	58,8	      4469,5	57,9
     42,8431	     4503,12	51,2	     4389,65	58,9
     42,8451	     4474,58	57,3	     4384,57	54,7
      42,847	     4443,83	57,3	     4478,89	56,7
      42,849	     4441,93	60,2	     4487,98	59,4
     42,8509	     4544,13	58,1	     4364,78	60,3
     42,8529	     4543,94	57,0	     4367,39	58,0
     42,8548	      4451,3	54,9	     4421,71	54,6
     42,8568	     4432,05	57,8	     4427,63	57,4
     42,8587	     4507,22	60,8	     4444,48	59,9
     42,8607	      4490,2	61,1	     4415,08	60,6
     42,8627	     4515,04	57,3	      4334,8	57,5
     42,8646	     4451,64	52,8	      4335,5	58,9
     42,8666	     4446,88	56,6	     4453,53	58,2
     42,8685	     4455,99	60,7	     4445,57	61,1
     42,8705	     4445,25	62,6	     4332,94	61,4
     42,8724	     4522,38	57,8	     4342,42	61,1
     42,8744	     4507,21	59,8	     4319,52	61,9
     42,8763	     4376,86	60,9	     4403,28	60,2
     42,8783	     4370,83	64,0	        4410	57,8
     42,8803	     4470,47	61,3	     4395,71	61,0
     42,8822	     4465,67	63,8	     4317,27	60,0
     42,8842	     4430,48	59,4	     4302,31	62,0
     42,8861	     4407,27	59,0	     4410,72	59,6
     42,8881	     4344,72	65,1	     4393,77	59,5
       42,89	     4330,67	66,1	     4333,08	65,5
      42,892	     4423,55	65,5	     4326,14	67,4
     42,8939	     4438,38	65,5	     4293,05	60,6
     42,8959	     4368,99	62,3	     4298,87	62,6
     42,8979	     4367,14	59,7	     4319,94	63,0
     42,8998	     4306,08	68,3	     4372,93	68,5
     42,9018	     4405,75	65,5	      4368,8	65,7
     42,9037	     4386,69	64,5	      4242,7	65,6
     42,9057	     4409,16	64,5	      4233,3	65,9
     42,9076	     4296,72	63,6	     4337,78	65,7
     42,9096	     4276,86	65,4	     4332,42	64,7
     42,9115	     4350,77	67,8	     4227,44	69,1
     42,9135	     4362,51	69,0	     4219,57	68,3
     42,9154	     4340,75	65,6	      4231,3	62,9
     42,9174	     4331,55	63,3	     4240,37	64,7
     42,9194	     4264,43	68,9	     4289,73	69,6
     42,9213	     4267,78	68,6	     4283,59	70,9
     42,9233	     4364,65	70,4	     4173,62	65,3
     42,9252	     4355,09	69,5	     4140,13	70,1
     42,9272	     4291,52	65,2	     4230,68	67,0
     42,9291	     4239,43	71,8	     4224,86	68,8
     42,9311	     4238,78	69,4	      4227,6	71,7
      42,933	     4240,93	71,8	     4199,66	70,7
      42,935	     4240,02	70,8	     4106,61	69,4
      42,937	      4277,2	67,5	     4117,66	70,7
     42,9389	     4278,14	69,2	     4099,34	68,3
     42,9409	     4157,82	68,7	     4210,69	73,7
     42,9428	     4150,99	72,0	     4204,83	69,1
     42,9448	     4223,99	72,6	     4088,43	73,3
     42,9467	     4215,38	71,7	      4085,2	72,1
     42,9487	     4188,46	69,9	     4113,36	69,3
     42,9506	      4180,5	65,6	     4106,79	67,8
     42,9526	     4122,28	72,4	     4153,95	74,9
     42,9545	     4098,16	74,9	        4117	74,4
     42,9565	     4194,42	70,8	     4085,85	73,3
     42,9585	     4183,12	76,0	     4009,76	72,4
     42,9604	     4124,54	72,1	     4001,41	69,9
     42,9624	        4101	71,0	     4132,68	73,7
     42,9643	     4069,07	76,8	     4056,83	77,0
     42,9663	     4064,21	76,2	     4050,13	74,6
     42,9682	     4159,81	75,4	     3977,25	72,9
     42,9702	     4172,85	72,4	     3975,32	73,7
     42,9721	     4162,56	73,9	     3986,37	70,8
     42,9741	     4033,53	72,7	     4065,22	74,8
     42,9761	     4062,25	75,8	        4080	75,4
      42,978	     4046,17	75,8	        3921	77,7
       42,98	     4131,95	75,4	     3923,17	76,1
     42,9819	     4119,86	78,7	     3947,26	73,4
     42,9839	     4006,91	75,8	     3958,96	73,4
     42,9858	      4003,1	74,8	      4007,8	78,7
     42,9878	     3977,69	75,3	     4020,25	79,8
     42,9897	     3980,57	80,5	     3887,99	75,5
     42,9917	     4071,69	75,6	     3893,25	77,2
     42,9936	     4044,27	78,4	      3967,4	74,0
     42,9956	     4043,86	74,5	     3942,23	75,1
     42,9976	      3914,2	78,5	     3917,44	80,0
     42,9995	     3919,88	76,1	     3901,61	80,4
     43,0015	     3957,19	79,3	     3818,04	76,9
     43,0034	     3939,83	79,7	      3814,8	78,0
     43,0054	     3968,04	76,8	     3906,55	77,4
     43,0073	     3970,06	79,7	     3922,63	78,9
     43,0093	     3848,01	76,7	     3854,65	81,0
     43,0112	     3866,03	79,5	     3836,01	79,7
     43,0132	     3945,47	82,1	     3819,49	82,1
     43,0152	     3930,32	84,3	     3790,46	77,6
     43,0171	     3911,39	83,0	     3791,47	77,3
     43,0191	     3853,33	79,3	     3889,29	79,6
      43,021	     3848,42	80,2	     3879,94	80,0
      43,023	     3793,31	83,0	     3765,61	82,6
     43,0249	     3800,53	82,0	     3757,06	82,2
     43,0269	     3900,98	83,2	     3734,79	78,1
     43,0288	     3899,27	81,3	      3715,7	81,1
     43,0308	      3793,1	78,5	     3817,14	82,5
     43,0327	     3805,73	80,9	     3805,47	84,4
     43,0347	     3753,45	81,6	     3687,78	84,9
     43,0367	     3744,33	84,2	     3670,75	84,7
     43,0386	     3850,14	81,7	     3718,02	81,0
     43,0406	     3829,88	86,5	     3703,39	79,1
     43,0425	     3757,89	79,4	     3764,32	84,9
     43,0445	     3736,18	79,8	     3777,75	83,6
     43,0464	     3660,99	83,7	     3652,43	85,5
     43,0484	     3632,41	86,6	     3646,74	83,8
     43,0503	     3767,25	87,2	     3630,06	81,7
     43,0523	     3776,75	83,5	     3617,53	79,7
     43,0543	     3693,95	83,6	     3712,21	82,5
     43,0562	     3699,01	82,2	     3703,85	83,0
     43,0582	     3627,68	85,4	     3566,85	86,5
     43,0601	      3623,3	83,5	     3551,54	87,4
     43,0621	     3721,44	87,8	     3567,19	84,8
      43,064	     3700,66	88,6	     3571,98	83,2
      43,066	     3698,59	84,3	     3653,69	86,3
     43,0679	     3674,31	84,5	     3643,37	86,9
     43,0699	     3553,75	86,8	     3539,61	88,6
     43,0718	     3540,17	85,9	     3528,75	86,0
     43,0738	      3541,6	90,5	     3533,21	83,8
     43,0758	      3631,2	86,9	     3515,36	84,0
     43,0777	     3629,25	87,4	     3513,01	85,3
     43,0797	     3614,44	84,6	     3613,34	87,4
     43,0816	     3623,25	84,1	     3594,53	88,0
     43,0836	     3507,63	86,9	     3478,08	88,4
     43,0855	     3501,12	87,1	     3473,66	90,7
     43,0875	     3561,15	88,1	     3485,47	85,5
     43,0894	     3570,33	87,1	     3462,82	85,4
     43,0914	     3547,55	87,7	     3557,23	89,0
     43,0934	      3523,5	88,5	     3549,54	85,8
     43,0953	     3404,87	88,6	     3475,54	91,0
     43,0973	     3392,42	85,9	     3471,74	89,7
     43,0992	     3468,39	90,0	     3399,52	88,1
     43,1012	     3458,43	90,7	     3370,18	86,6
     43,1031	     3501,13	88,9	     3464,83	84,8
     43,1051	     3481,75	87,6	     3461,97	89,8
      43,107	     3392,14	88,8	      3394,7	91,4
      43,109	     3389,02	88,0	     3400,89	91,0
     43,1109	     3422,34	90,0	     3331,46	91,4
     43,1129	     3402,51	92,5	     3339,44	88,4
     43,1149	     3463,64	91,0	      3427,6	88,6
     43,1168	     3447,95	88,6	      3424,4	88,2
     43,1188	     3438,75	91,8	     3359,33	90,4
     43,1207	     3323,04	91,3	     3362,94	95,8
     43,1227	     3322,84	87,7	     3352,89	89,5
     43,1246	     3360,16	92,6	     3262,31	87,6
     43,1266	     3357,86	91,7	     3258,09	90,0
     43,1285	     3402,52	92,9	     3351,72	87,4
     43,1305	     3385,27	91,7	     3336,88	88,8
     43,1325	     3258,29	89,0	     3348,68	93,0
     43,1344	        3268	88,8	     3327,62	93,8
     43,1364	     3304,47	93,6	     3204,08	94,4
     43,1383	     3283,86	95,5	      3206,9	92,3
     43,1403	     3373,44	94,4	     3280,57	92,6
     43,1422	     3348,82	94,1	     3292,81	88,8
     43,1442	     3279,69	94,1	     3308,08	93,6
     43,1461	      3269,3	94,3	     3290,84	93,7
     43,1481	        3179	95,0	     3165,96	92,2
       43,15	     3169,72	95,6	     3157,84	94,6
      43,152	     3177,41	91,4	     3192,28	89,0
      43,154	     3289,66	94,1	     3166,52	92,1
     43,1559	     3273,37	93,3	     3159,32	91,5
     43,1579	     3250,05	91,1	     3237,09	94,2
     43,1598	     3239,13	91,1	     3243,26	95,4
     43,1618	     3139,66	93,0	     3122,02	95,7
     43,1637	     3141,87	96,3	     3125,86	95,5
     43,1657	     3178,82	96,9	     3138,51	90,6
     43,1676	     3185,04	97,6	     3086,99	92,7
     43,1696	     3211,06	94,8	     3200,35	93,4
     43,1716	     3206,84	92,2	     3173,57	94,3
     43,1735	     3088,77	92,9	     3128,52	94,5
     43,1755	      3090,5	91,2	      3132,7	97,6
     43,1774	     3080,13	93,5	     3032,09	95,9
     43,1794	     3079,23	95,6	     3023,87	96,0
     43,1813	     3174,77	94,4	     3013,29	93,6
     43,1833	     3158,18	97,1	     3104,75	93,6
     43,1852	     3122,94	95,5	     3078,62	91,7
     43,1872	     3122,06	93,6	     3132,93	95,0
     43,1891	     3020,35	96,3	     3029,56	95,7
     43,1911	      3024,6	94,4	     3012,13	95,8
     43,1931	     3075,68	96,1	     2983,82	94,0
      43,195	     3054,42	96,7	     2974,75	95,0
      43,197	     3106,54	95,0	     2978,33	95,4
     43,1989	     3098,09	97,1	     3074,85	95,7
     43,2009	     3083,34	97,2	      3077,3	94,2
     43,2028	     2971,05	98,4	        2998	99,5
     43,2048	     2980,67	95,3	     3004,86	96,6
     43,2067	     2962,97	99,0	     2913,96	96,5
     43,2087	      2955,1	98,6	      2892,8	96,6
     43,2107	      3054,1	99,3	     2970,23	94,2
     43,2126	     3062,88	97,0	     2925,47	93,9
     43,2146	     2971,66	95,0	     2983,42	97,2
     43,2165	     2961,83	94,3	     2965,87	97,7
     43,2185	     2904,22	98,2	     2852,83	99,9
     43,2204	     2876,73	98,9	     2858,12	98,4
     43,2224	     2948,41	100,3	     2850,91	98,0
     43,2243	     2922,83	101,4	     2856,77	97,0
     43,2263	     2991,25	98,7	     2859,96	94,6
     43,2282	     2972,61	97,1	     2963,55	96,7
     43,2302	     2856,73	96,1	     2929,84	97,6
     43,2322	     2883,62	96,8	     2902,55	99,6
     43,2341	     2893,94	97,2	      2799,8	99,6
     43,2361	     2844,36	98,8	     2808,98	99,9
      43,238	     2821,86	101,7	     2842,31	99,1
       43,24	     2900,35	99,8	     2829,86	97,9
     43,2419	     2924,99	100,0	     2829,32	97,7
     43,2439	     2912,19	100,1	      2918,1	98,2
     43,2458	     2918,81	98,1	     2917,03	97,5
     43,2478	     2816,33	99,2	     2828,39	99,2
     43,2498	     2778,43	101,4	     2841,73	102,0
     43,2517	     2767,99	101,9	     2743,53	99,0
     43,2537	      2740,2	100,8	      2751,3	102,0
     43,2556	     2840,76	101,5	     2779,03	99,4
     43,2576	     2821,32	102,3	     2765,66	99,3
     43,2595	     2796,98	103,0	     2842,37	102,6
     43,2615	     2813,55	98,6	     2854,56	98,7
     43,2634	     2706,34	100,6	     2720,68	100,1
     43,2654	     2718,91	99,0	     2739,29	100,2
     43,2673	     2728,04	102,1	     2730,75	104,9
     43,2693	     2726,96	100,5	     2671,95	101,5
     43,2713	      2810,4	101,2	     2668,38	103,5
     43,2732	     2805,74	102,7	     2768,41	101,5
     43,2752	     2795,54	103,7	     2771,01	97,2
     43,2771	     2719,03	100,1	     2773,08	102,6
     43,2791	     2737,48	99,6	     2792,45	100,8
      43,281	     2649,85	102,9	     2667,07	102,6
      43,283	     2659,27	100,6	     2654,73	101,5
     43,2849	     2682,43	102,3	     2660,25	99,7
     43,2869	     2761,33	100,2	     2623,02	100,2
     43,2889	      2741,3	101,3	     2738,95	101,8
     43,2908	     2720,61	98,3	     2715,42	102,0
     43,2928	      2725,2	104,5	     2735,11	103,3
     43,2947	      2612,1	104,2	     2742,12	100,8
     43,2967	     2598,42	100,1	     2626,09	101,7
     43,2986	     2615,54	100,6	     2643,66	103,4
     43,3006	     2629,93	104,3	     2596,73	101,2
     43,3025	     2622,99	103,4	     2555,06	102,9
     43,3045	     2707,92	103,6	     2645,59	101,9
     43,3064	     2697,14	105,9	     2623,68	101,1
     43,3084	     2664,97	102,8	     2660,68	103,2
     43,3104	     2643,58	103,9	     2664,65	101,3
     43,3123	     2532,18	104,5	     2573,68	104,7
     43,3143	     2538,31	101,0	     2589,11	103,2
     43,3162	      2500,2	104,3	     2525,16	102,1
     43,3182	     2499,22	105,3	     2522,03	105,1
     43,3201	     2620,63	103,5	      2565,1	102,3
     43,3221	     2612,41	105,8	     2546,31	102,4
      43,324	     2610,68	103,8	     2636,37	103,5
      43,326	     2614,01	105,1	     2628,39	102,2
      43,328	     2521,14	103,5	     2568,76	104,7
     43,3299	     2542,09	103,0	     2565,86	106,3
     43,3319	     2487,53	106,7	     2451,93	102,9
     43,3338	     2474,41	106,5	     2462,06	104,8
     43,3358	     2571,85	105,1	     2508,08	103,8
     43,3377	     2560,09	107,5	     2478,55	102,8
     43,3397	     2542,41	106,6	     2549,84	104,7
     43,3416	     2558,04	103,5	     2547,53	104,1
     43,3436	     2561,84	104,4	     2532,13	105,9
     43,3456	     2445,99	104,2	     2543,28	104,5
     43,3475	     2470,91	103,0	     2539,21	103,9
     43,3495	     2408,52	104,3	     2425,81	104,5
     43,3514	     2398,87	105,6	     2420,35	107,1
     43,3534	     2486,26	104,6	     2414,46	102,4
     43,3553	     2474,89	107,8	     2397,67	106,5
     43,3573	     2550,71	105,8	     2480,61	103,8
     43,3592	     2525,21	106,7	     2450,48	103,9
     43,3612	     2461,61	105,1	        2507	105,5
     43,3631	     2477,02	103,8	     2423,39	106,6
     43,3651	     2371,13	106,1	     2438,42	107,9
     43,3671	     2384,29	107,7	     2360,15	106,3
      43,369	     2404,21	107,2	      2366,5	108,6
      43,371	     2382,74	107,8	     2369,79	108,8
     43,3729	      2482,6	105,4	     2371,14	105,9
     43,3749	     2436,06	108,1	     2358,24	103,5
     43,3768	      2425,5	106,7	      2451,9	104,5
     43,3788	     2405,91	106,3	     2423,21	101,4
     43,3807	     2421,34	103,9	     2412,47	106,8
     43,3827	     2320,32	103,4	        2426	106,4
     43,3847	     2338,53	105,7	     2318,91	108,1
     43,3866	     2355,46	107,7	     2333,78	109,2
     43,3886	     2320,28	109,6	      2291,9	108,2
     43,3905	     2420,78	108,7	     2304,18	107,0
     43,3925	     2397,19	108,0	     2380,92	104,7
     43,3944	     2377,21	107,0	     2359,41	103,4
     43,3964	      2391,4	104,5	     2406,14	105,7
     43,3983	     2428,67	106,6	     2380,74	106,4
     43,4003	      2339,3	103,6	     2311,42	110,0
     43,4022	     2346,96	106,3	     2351,79	109,0
     43,4042	     2257,32	110,6	     2252,56	108,7
     43,4062	     2286,92	109,6	     2267,97	110,2
     43,4081	      2248,8	109,9	     2275,94	104,0
     43,4101	     2234,79	107,6	     2244,05	107,9
      43,412	     2322,12	106,6	     2322,79	105,1
      43,414	      2320,3	108,1	     2320,12	107,2
     43,4159	     2339,23	107,3	     2299,88	105,7
     43,4179	     2346,46	108,5	     2349,21	108,2
     43,4198	     2259,66	107,2	     2354,98	105,2
     43,4218	     2276,81	105,9	     2272,55	108,9
     43,4238	     2200,68	107,1	     2281,76	107,9
     43,4257	     2201,93	106,4	     2162,06	110,4
     43,4277	     2247,75	109,5	     2197,46	111,7
     43,4296	     2211,43	111,6	     2154,74	109,3
     43,4316	     2295,03	108,8	     2262,98	109,2
     43,4335	     2286,58	111,1	     2240,16	104,7
     43,4355	     2271,99	108,5	     2306,09	108,2
     43,4374	     2270,04	107,9	      2306,8	105,2
     43,4394	     2289,24	106,5	     2234,97	111,2
     43,4413	     2172,94	107,5	     2265,86	109,8
     43,4433	     2194,39	109,6	     2281,82	111,3
     43,4453	     2132,77	110,8	      2170,4	111,1
     43,4472	     2131,98	110,8	     2180,83	109,8
     43,4492	     2181,49	113,0	     2138,91	107,4
     43,4511	     2160,12	110,9	     2104,28	110,4
     43,4531	     2254,03	107,6	     2188,79	106,3
      43,455	     2258,94	110,3	     2158,46	109,8
      43,457	     2234,31	106,2	     2237,57	110,1
     43,4589	     2240,69	109,7	     2229,13	106,8
     43,4609	     2116,45	110,5	     2204,59	109,9
     43,4629	     2141,18	107,5	     2218,38	109,6
     43,4648	     2091,21	111,0	     2098,21	109,2
     43,4668	     2099,94	110,1	     2085,59	109,4
     43,4687	      2131,3	109,3	     2052,23	110,9
     43,4707	     2105,54	112,5	     2046,48	110,3
     43,4726	     2201,08	109,8	     2125,15	110,1
     43,4746	     2156,95	112,2	     2106,07	108,3
     43,4765	     2149,36	108,7	     2188,66	107,3
     43,4785	     2167,28	111,6	     2158,38	105,2
     43,4804	      2174,1	108,1	     2139,35	109,9
     43,4824	     2095,26	107,5	     2159,19	111,2
     43,4844	     2138,56	109,7	      2086,6	114,7
     43,4863	     2017,64	110,6	     2119,37	112,9
     43,4883	     2042,69	110,7	     2025,09	112,3
     43,4902	     2083,92	112,9	     2020,96	109,4
     43,4922	     2083,39	112,5	      2045,6	106,8
     43,4941	     2153,58	111,0	     2022,74	110,8
     43,4961	     2130,18	109,9	     2090,24	109,5
      43,498	     2146,48	109,7	     2052,79	110,8
        43,5	     1925,91	108,5	     2115,95	112,6

