X-Data [Hz]	Piezo (M - Filtered) [mV]	Phase [Deg]	Piezo (M - Filtered) [mV]	Phase [Deg]	
	002: [07-10-24 09:51]		003: [07-10-24 09:54]	
        41,5	     12,3471	-105,8	     12,7406	-104,4
      41,502	      12,158	-101,0	     13,0614	-101,6
     41,5039	     12,5582	-103,0	     13,2276	-104,0
     41,5059	      12,907	-103,9	     13,2753	-103,6
     41,5078	     12,9273	-102,3	     13,2455	-102,7
     41,5098	     13,1449	-106,7	     13,2714	-104,0
     41,5117	     12,9831	-103,9	     13,2342	-101,7
     41,5137	     13,3148	-106,9	     13,5024	-106,5
     41,5156	     13,3479	-106,8	      13,403	-103,0
     41,5176	     13,2715	-103,8	     13,5312	-107,6
     41,5196	      13,167	-103,9	     13,5129	-105,7
     41,5215	     13,0713	-101,8	     13,4723	-105,4
     41,5235	     13,3804	-106,4	     13,5858	-106,3
     41,5254	     13,2523	-102,0	     13,3867	-103,3
     41,5274	     13,3935	-102,6	     13,6885	-107,4
     41,5293	     13,3059	-102,6	      13,535	-101,7
     41,5313	      13,276	-101,6	     13,5617	-104,6
     41,5332	     13,5029	-105,1	     13,7634	-107,2
     41,5352	     13,3948	-100,9	     13,6038	-103,4
     41,5371	     13,7147	-105,9	     13,8244	-107,0
     41,5391	     13,5345	-104,0	     13,5624	-101,9
     41,5411	     13,6366	-106,4	      13,641	-104,1
      41,543	     13,6733	-106,9	     13,6872	-102,0
      41,545	     13,5734	-102,5	      13,672	-101,2
     41,5469	     13,8158	-106,1	     13,8313	-105,6
     41,5489	     13,6274	-101,6	     13,6963	-102,1
     41,5508	      13,774	-102,9	     14,0103	-105,5
     41,5528	     13,4924	-102,7	     13,8499	-101,5
     41,5547	     13,5355	-102,2	     14,1003	-106,7
     41,5567	     13,7955	-104,6	     14,0922	-104,4
     41,5587	     13,6446	-101,7	     14,0473	-105,4
     41,5606	     13,8818	-106,8	     14,1491	-106,1
     41,5626	     13,7561	-103,7	     13,9498	-102,4
     41,5645	      13,979	-106,2	     14,1991	-105,6
     41,5665	     13,9663	-106,5	     14,2466	-104,8
     41,5684	     13,9501	-102,6	     14,1701	-105,3
     41,5704	     14,1309	-105,7	     14,2476	-106,4
     41,5723	     13,9144	-101,9	     14,0664	-102,2
     41,5743	     14,0643	-105,5	     14,3107	-105,3
     41,5762	     14,1211	-106,5	     14,2259	-100,7
     41,5782	     14,0999	-102,2	     14,2168	-102,8
     41,5802	     14,2589	-105,2	     14,2533	-102,9
     41,5821	     13,9539	-101,3	     14,0812	-101,5
     41,5841	     14,2486	-105,8	     14,5304	-105,7
      41,586	     14,0808	-102,3	     14,3857	-102,1
      41,588	     14,3807	-105,5	     14,5623	-105,7
     41,5899	     14,2299	-105,5	     14,5056	-104,0
     41,5919	      14,082	-101,2	      14,485	-105,0
     41,5938	     14,4418	-106,0	      14,654	-105,0
     41,5958	     14,3822	-103,3	     14,4948	-102,8
     41,5978	     14,6106	-106,0	     14,6498	-105,3
     41,5997	     14,5134	-105,5	     14,4994	-101,1
     41,6017	     14,3858	-102,0	     14,5784	-103,3
     41,6036	     14,5735	-104,6	     14,8005	-106,0
     41,6056	     14,3819	-101,5	     14,5203	-100,5
     41,6075	     14,4643	-102,6	     14,6997	-103,2
     41,6095	     14,5268	-102,6	     14,7011	-101,4
     41,6114	     14,4181	-101,6	     14,7244	-102,3
     41,6134	     14,5648	-104,8	     14,9038	-102,7
     41,6153	     14,4489	-101,6	     14,7568	-100,3
     41,6173	     14,7988	-105,6	     15,0282	-104,7
     41,6193	     14,6716	-104,3	     14,8923	-101,4
     41,6212	     14,8547	-103,6	     15,0482	-105,9
     41,6232	     14,8789	-105,1	     15,0978	-105,0
     41,6251	     14,6253	-101,3	     15,0125	-103,4
     41,6271	     14,8209	-102,5	      15,173	-105,0
      41,629	     14,7256	-101,7	     15,0964	-101,9
      41,631	     14,7908	-101,3	     15,1811	-104,6
     41,6329	     14,9098	-104,1	     15,3234	-104,8
     41,6349	     14,8627	-100,5	     15,1013	-102,2
     41,6369	      15,133	-105,1	     15,2351	-101,2
     41,6388	     14,9857	-104,4	     15,1129	-99,8
     41,6408	     15,1721	-103,3	     15,4314	-103,9
     41,6427	     15,2328	-105,4	     15,3392	-101,5
     41,6447	     14,9989	-100,5	     15,3717	-104,8
     41,6466	     15,2886	-103,4	     15,4891	-105,3
     41,6486	     15,0607	-100,9	      15,472	-101,5
     41,6505	     15,1771	-102,0	     15,5594	-104,3
     41,6525	     15,2059	-102,5	     15,6466	-103,0
     41,6544	     15,0942	-100,4	     15,5979	-103,0
     41,6564	     15,4351	-104,0	     15,7672	-104,9
     41,6584	     15,3596	-103,0	     15,4566	-99,3
     41,6603	       15,39	-102,3	     15,5697	-102,9
     41,6623	     15,4822	-104,9	     15,5124	-100,3
     41,6642	     15,2577	-100,0	     15,5188	-100,1
     41,6662	     15,5915	-102,2	     15,9383	-103,6
     41,6681	      15,413	-101,5	     15,8301	-101,5
     41,6701	     15,4382	-99,4	     15,9023	-103,7
      41,672	     15,5569	-102,4	     15,6684	-98,6
      41,674	     15,4622	-100,4	     15,7727	-100,5
      41,676	     15,7212	-105,1	     15,9395	-101,0
     41,6779	     15,5277	-102,4	     15,8345	-99,9
     41,6799	     15,7397	-102,4	      15,945	-101,0
     41,6818	     15,8292	-103,2	     15,9678	-99,6
     41,6838	     15,7057	-100,4	     15,7856	-101,0
     41,6857	     15,8576	-102,7	     16,2444	-102,1
     41,6877	      15,703	-99,7	     16,1714	-99,8
     41,6896	     15,8549	-99,2	     16,3113	-103,9
     41,6916	     15,8463	-102,4	     16,3232	-103,8
     41,6936	     15,7665	-99,6	     16,1588	-101,8
     41,6955	     16,1214	-104,8	     16,3767	-103,8
     41,6975	     15,9598	-102,5	      16,206	-99,3
     41,6994	     16,1781	-101,9	     16,4172	-101,8
     41,7014	     16,3396	-103,2	     16,4367	-100,4
     41,7033	      16,098	-99,0	     16,3601	-99,5
     41,7053	       16,27	-101,0	     16,5229	-100,8
     41,7072	     16,0838	-100,9	     16,4421	-99,3
     41,7092	     16,1343	-100,4	     16,7119	-103,5
     41,7111	     16,4136	-102,4	     16,7455	-102,0
     41,7131	     16,2183	-100,0	     16,6363	-101,3
     41,7151	     16,3145	-98,7	     16,8143	-104,1
      41,717	     16,3079	-101,1	     16,8617	-102,1
      41,719	     16,2268	-98,8	     16,8348	-102,1
     41,7209	     16,6101	-104,0	     16,9774	-102,7
     41,7229	     16,4989	-101,7	     16,8074	-99,8
     41,7248	     16,6741	-100,8	     16,9477	-102,2
     41,7268	     16,7284	-102,8	     16,7753	-99,0
     41,7287	     16,4098	-99,0	     16,7778	-99,9
     41,7307	     16,6677	-100,6	     17,0176	-100,5
     41,7327	     16,5957	-100,1	     16,8805	-98,2
     41,7346	     16,6731	-99,4	     17,3183	-102,6
     41,7366	     16,8376	-101,9	      17,243	-100,4
     41,7385	     16,7357	-98,7	      17,278	-102,5
     41,7405	     17,0496	-103,0	     17,3147	-102,4
     41,7424	     16,9142	-102,2	     17,3029	-100,7
     41,7444	     17,0088	-100,6	     17,3961	-101,8
     41,7463	     17,1466	-103,1	     17,5387	-101,9
     41,7483	      16,885	-98,7	      17,363	-98,5
     41,7502	     17,0308	-99,4	     17,5346	-101,8
     41,7522	     17,2549	-101,6	     17,2814	-99,5
     41,7542	      17,012	-97,5	     17,4753	-99,6
     41,7561	     17,2793	-99,5	     17,6326	-98,6
     41,7581	     17,2413	-100,3	     17,4805	-96,9
       41,76	     17,1437	-98,5	     17,8102	-101,8
      41,762	      17,447	-102,2	     17,7528	-99,6
     41,7639	     17,2492	-100,9	       17,84	-101,9
     41,7659	     17,5593	-99,9	     18,0866	-102,2
     41,7678	     17,6555	-101,3	     17,9137	-98,9
     41,7698	     17,4218	-98,6	     18,0494	-100,7
     41,7718	     17,6588	-101,9	     18,1285	-101,1
     41,7737	     17,5146	-100,1	     17,9075	-99,7
     41,7757	      17,786	-100,6	     18,1339	-101,5
     41,7776	      17,803	-101,5	      17,976	-97,7
     41,7796	     17,5415	-99,8	     17,9876	-98,8
     41,7815	     17,8962	-101,3	     18,2423	-99,2
     41,7835	      17,973	-102,0	     18,1656	-97,0
     41,7854	     17,8418	-98,0	     18,2237	-97,5
     41,7874	     18,0204	-101,0	      18,427	-99,4
     41,7893	     17,8009	-97,7	     18,2393	-97,0
     41,7913	     17,8269	-96,9	     18,5841	-101,8
     41,7933	     18,0274	-101,1	     18,5943	-100,5
     41,7952	     18,0004	-98,7	     18,4814	-98,7
     41,7972	     18,2801	-101,6	     18,8049	-100,6
     41,7991	     18,2855	-101,4	     18,5228	-96,6
     41,8011	     18,2802	-97,6	     18,6052	-98,1
      41,803	     18,5097	-99,7	     18,8361	-98,1
      41,805	     18,1832	-97,0	      18,782	-97,1
     41,8069	     18,2548	-97,6	     19,0526	-99,9
     41,8089	     18,4037	-99,7	     18,9067	-97,5
     41,8109	     18,3099	-97,7	     19,1157	-100,4
     41,8128	     18,7421	-100,7	     19,2026	-100,1
     41,8148	       18,65	-100,1	     18,9512	-97,2
     41,8167	     18,7042	-97,8	     19,1664	-99,9
     41,8187	     18,8371	-100,3	     19,0983	-97,1
     41,8206	     18,6241	-97,6	     19,1009	-96,9
     41,8226	     18,7196	-98,3	     19,2061	-98,7
     41,8245	     19,0024	-100,6	     19,2846	-96,3
     41,8265	     18,7832	-96,7	      19,237	-96,1
     41,8284	     18,8993	-97,9	     19,6479	-100,0
     41,8304	      18,963	-98,1	     19,5084	-97,5
     41,8324	     18,9512	-96,5	     19,6552	-99,6
     41,8343	     19,3085	-101,2	     19,6181	-96,0
     41,8363	     19,1943	-99,0	     19,4923	-95,2
     41,8382	     19,2737	-99,2	     19,8771	-99,6
     41,8402	     19,3498	-100,0	     19,8792	-97,3
     41,8421	     19,1645	-95,9	     19,8823	-98,4
     41,8441	     19,4361	-97,8	     20,1027	-99,7
      41,846	     19,3696	-97,5	     20,0867	-99,1
      41,848	     19,4123	-96,2	     20,0658	-98,3
       41,85	     19,7331	-99,7	     20,2692	-99,9
     41,8519	     19,5368	-99,2	     20,0144	-95,3
     41,8539	     19,7099	-97,7	     20,1046	-95,6
     41,8558	     19,8762	-99,1	       20,34	-97,8
     41,8578	     19,8228	-98,2	     20,2721	-95,0
     41,8597	     19,8948	-96,8	     20,4797	-99,5
     41,8617	      20,063	-99,3	     20,3482	-95,2
     41,8636	     19,7282	-96,0	     20,3958	-95,9
     41,8656	     19,9234	-96,9	     20,7319	-97,2
     41,8675	     19,9383	-97,7	     20,6274	-95,7
     41,8695	     19,8825	-95,2	     20,5503	-93,6
     41,8715	     20,2202	-98,8	     20,8825	-98,3
     41,8734	     20,1436	-96,6	     20,7676	-96,3
     41,8754	     20,3211	-98,6	     20,9542	-98,4
     41,8773	     20,4482	-99,3	     21,1236	-98,6
     41,8793	     20,3168	-97,3	     20,8748	-94,9
     41,8812	     20,5137	-96,9	      21,067	-97,0
     41,8832	     20,7052	-99,0	     21,1799	-95,5
     41,8851	      20,507	-93,4	     21,1551	-94,6
     41,8871	     20,6711	-95,5	     21,5775	-97,7
     41,8891	     20,6825	-96,3	     21,5634	-96,8
      41,891	     20,6763	-94,5	     21,3635	-95,5
      41,893	     20,9513	-98,3	     21,5863	-98,0
     41,8949	     20,9173	-96,6	     21,3916	-93,3
     41,8969	     21,0722	-96,3	     21,4918	-95,2
     41,8988	     21,2133	-97,5	      21,749	-95,8
     41,9008	     20,9756	-93,6	     21,7753	-93,7
     41,9027	     21,1801	-94,2	     22,0286	-97,3
     41,9047	     21,3234	-97,5	     22,1424	-97,3
     41,9066	     21,2305	-95,7	     21,9381	-94,7
     41,9086	     21,5639	-97,6	     22,1281	-95,9
     41,9106	     21,6049	-98,0	     22,1795	-94,0
     41,9125	     21,3745	-94,0	     22,1262	-92,9
     41,9145	     21,5668	-94,7	     22,4767	-96,2
     41,9164	     21,4955	-94,5	     22,4874	-94,1
     41,9184	     21,5083	-93,3	     22,3495	-93,1
     41,9203	     21,8943	-97,9	     22,7242	-96,8
     41,9223	     21,7568	-95,5	     22,7055	-96,2
     41,9242	     22,0048	-95,9	     22,5537	-95,1
     41,9262	     22,1143	-97,5	     22,8821	-96,7
     41,9282	     21,8261	-92,6	      22,773	-92,4
     41,9301	     22,0974	-93,9	     22,8624	-92,6
     41,9321	     22,3438	-95,0	     23,1738	-95,2
      41,934	     22,1403	-93,3	     23,0442	-93,3
      41,936	      22,316	-93,8	     23,2037	-96,4
     41,9379	     22,3662	-94,8	     23,4189	-95,9
     41,9399	     22,3344	-93,7	     23,1662	-92,4
     41,9418	     22,6537	-96,6	      23,382	-94,6
     41,9438	     22,6252	-95,2	     23,4769	-92,2
     41,9457	     22,6606	-92,4	      23,428	-91,8
     41,9477	     22,8914	-94,2	     23,7712	-95,0
     41,9497	     22,7505	-93,3	     23,8881	-94,2
     41,9516	     22,8262	-92,4	     23,7359	-93,4
     41,9536	     23,2038	-96,3	     24,0129	-95,8
     41,9555	       23,06	-95,3	     23,8968	-91,5
     41,9575	     23,1765	-94,2	      23,963	-92,6
     41,9594	     23,2952	-94,3	     24,1885	-94,1
     41,9614	     23,1249	-92,0	     24,3448	-92,1
     41,9633	     23,3247	-92,8	     24,2683	-90,8
     41,9653	     23,3975	-93,4	     24,7266	-94,6
     41,9673	     23,3554	-92,2	     24,8295	-93,0
     41,9692	     23,8823	-94,8	     24,5916	-92,2
     41,9712	      23,908	-94,9	     24,8464	-94,4
     41,9731	     23,7878	-91,3	     24,7017	-91,3
     41,9751	     23,9905	-93,3	     24,7373	-92,1
      41,977	     23,8356	-90,9	     25,0468	-92,5
      41,979	     23,9955	-91,0	     25,0387	-91,4
     41,9809	     24,1553	-92,1	     25,2382	-93,0
     41,9829	     24,1287	-93,0	      25,425	-93,2
     41,9848	     24,1566	-91,5	     25,2289	-90,1
     41,9868	     24,6061	-93,8	     25,3045	-91,3
     41,9888	     24,3225	-90,1	       25,74	-93,3
     41,9907	     24,4723	-90,2	     25,6722	-91,1
     41,9927	     24,7033	-93,0	     25,7861	-92,2
     41,9946	     24,6866	-90,4	     26,0611	-92,8
     41,9966	     24,7342	-89,9	     25,7677	-89,4
     41,9985	     25,0381	-93,7	     25,9894	-90,6
     42,0005	     24,9835	-92,2	     26,3202	-90,9
     42,0024	     25,2536	-92,1	     26,2495	-89,0
     42,0044	     25,4235	-93,7	     26,6649	-92,6
     42,0064	     25,1606	-89,4	     26,8157	-92,1
     42,0083	     25,3765	-89,6	     26,5308	-89,7
     42,0103	     25,6108	-92,2	     26,7016	-91,7
     42,0122	      25,523	-90,0	     26,8794	-88,5
     42,0142	      25,901	-91,3	     26,8775	-88,1
     42,0161	     26,0421	-92,4	     26,9637	-89,1
     42,0181	     25,8976	-89,7	     27,3212	-89,2
       42,02	     26,1349	-90,6	     27,2628	-88,2
      42,022	     25,9893	-90,2	     27,6333	-91,1
     42,0239	     26,0477	-88,3	     27,8194	-90,9
     42,0259	     26,4738	-91,3	     27,5543	-88,5
     42,0279	     26,4459	-90,4	     27,7474	-89,2
     42,0298	     26,4011	-88,9	     28,0477	-89,1
     42,0318	     26,7812	-90,6	     27,9382	-87,3
     42,0337	     26,8554	-91,4	     28,1494	-89,9
     42,0357	     26,7997	-88,6	     28,1756	-87,4
     42,0376	     27,0299	-89,8	     28,1512	-86,7
     42,0396	      26,934	-88,3	     28,3346	-87,7
     42,0415	     26,9933	-87,4	     28,7059	-88,5
     42,0435	     27,4756	-89,8	     28,7446	-87,5
     42,0455	     27,5201	-89,9	     29,1051	-89,8
     42,0474	     27,4121	-87,2	     29,2857	-88,9
     42,0494	     27,5895	-87,6	     29,0164	-85,9
     42,0513	     27,6045	-89,5	      29,219	-87,0
     42,0533	     27,5791	-87,3	     29,5794	-86,6
     42,0552	     28,2248	-89,9	     29,4998	-85,4
     42,0572	     28,1747	-90,1	     29,8868	-88,3
     42,0591	      28,192	-86,6	     30,0593	-87,4
     42,0611	     28,3868	-87,3	     29,9495	-85,6
      42,063	     28,2586	-86,3	     30,1081	-87,0
      42,065	     28,3507	-85,5	       30,47	-87,0
      42,067	     28,8751	-88,7	     30,4363	-84,3
     42,0689	     28,8496	-88,5	     30,7377	-86,9
     42,0709	     28,8108	-86,4	     30,9707	-87,2
     42,0728	     29,0516	-86,6	     30,7409	-84,0
     42,0748	     29,1208	-87,4	     30,9246	-84,2
     42,0767	     29,3455	-86,1	     31,3698	-85,3
     42,0787	     29,5746	-87,4	     31,3291	-84,2
     42,0806	     29,3915	-85,2	     31,5127	-86,2
     42,0826	     29,5354	-84,2	     31,7656	-86,2
     42,0846	     29,9131	-84,9	     31,6881	-83,2
     42,0865	     29,9506	-86,1	     31,7691	-84,0
     42,0885	     29,9526	-84,1	     32,2506	-84,5
     42,0904	     30,4618	-87,4	     32,2129	-82,8
     42,0924	      30,459	-87,2	     32,5021	-85,1
     42,0943	     30,5389	-84,3	     32,7578	-84,1
     42,0963	     30,8597	-85,3	     32,6653	-82,2
     42,0982	      30,754	-82,8	     32,7928	-82,9
     42,1002	     30,8959	-82,3	     33,2977	-84,1
     42,1021	     31,1657	-83,7	     33,3817	-82,8
     42,1041	      31,263	-84,9	     33,5027	-83,5
     42,1061	     31,2053	-83,4	     33,8186	-84,0
      42,108	     31,8135	-84,8	     34,0493	-83,1
       42,11	     31,8868	-85,4	     33,8397	-81,5
     42,1119	     31,7716	-82,6	     34,1711	-82,8
     42,1139	     31,9945	-82,7	     34,4141	-80,1
     42,1158	     32,1264	-83,8	     34,4164	-79,5
     42,1178	     32,1402	-82,7	     34,9504	-82,6
     42,1197	     32,5617	-82,9	     35,1073	-81,5
     42,1217	     32,6613	-83,6	     34,9429	-80,0
     42,1237	     32,5079	-81,1	     35,2435	-81,6
     42,1256	     32,7834	-81,0	     35,5658	-79,3
     42,1276	     32,9643	-82,8	     35,6736	-78,9
     42,1295	     33,0408	-81,9	     35,8282	-79,1
     42,1315	     33,6087	-82,2	     36,4131	-80,0
     42,1334	     33,8412	-82,5	     36,2436	-77,7
     42,1354	     33,6844	-79,4	     36,5062	-78,6
     42,1373	     34,0366	-79,3	     36,9797	-79,1
     42,1393	     34,4453	-80,7	     37,0879	-77,0
     42,1413	     34,4792	-80,5	     37,2347	-78,7
     42,1432	     34,7719	-80,0	     37,5931	-79,5
     42,1452	     34,9618	-80,4	      37,634	-76,8
     42,1471	     34,8757	-78,7	     37,7215	-76,9
     42,1491	     35,1586	-77,8	     38,0239	-77,4
      42,151	     35,5713	-80,4	     38,4174	-76,0
      42,153	      35,535	-79,8	     38,4874	-74,9
     42,1549	     35,8277	-78,0	     38,8797	-77,2
     42,1569	     36,0968	-78,8	     39,1617	-77,4
     42,1588	     36,1999	-79,1	     39,1184	-73,7
     42,1608	     36,2598	-75,7	     39,6549	-76,0
     42,1628	     36,5292	-76,2	     39,9575	-75,6
     42,1647	     36,7078	-77,8	     39,8224	-73,9
     42,1667	     36,7345	-75,9	     40,0968	-74,6
     42,1686	     37,3794	-78,1	     40,6723	-74,6
     42,1706	     37,4205	-77,6	      40,726	-73,9
     42,1725	     37,3862	-75,4	     40,7628	-71,7
     42,1745	     37,6464	-75,1	     41,3617	-74,5
     42,1764	     38,0348	-77,0	     41,5677	-73,3
     42,1784	     38,0935	-76,3	     41,4843	-71,7
     42,1804	     38,4307	-74,3	     41,8256	-72,4
     42,1823	     38,6551	-75,4	      42,263	-70,3
     42,1843	     38,6542	-72,9	     42,3783	-70,2
     42,1862	     38,9019	-72,5	     42,7545	-71,3
     42,1882	     39,2584	-72,4	     43,1124	-71,4
     42,1901	     39,3836	-73,5	     43,2797	-69,8
     42,1921	     39,4421	-72,5	     43,4675	-69,7
      42,194	     40,0355	-73,9	     43,9873	-70,2
      42,196	     40,1525	-74,2	     44,1267	-68,7
     42,1979	     40,1555	-71,1	     44,4043	-69,4
     42,1999	     40,4725	-71,7	     44,7438	-70,2
     42,2019	     40,7561	-72,4	     44,7988	-66,7
     42,2038	     40,8268	-70,7	      44,993	-66,2
     42,2058	     41,4139	-70,5	     45,6085	-67,1
     42,2077	     41,7285	-71,2	     45,8524	-66,5
     42,2097	     41,5203	-69,4	     45,9239	-64,7
     42,2116	     41,7027	-67,8	     46,2027	-66,0
     42,2136	     42,4144	-70,5	     46,5094	-65,9
     42,2155	     42,4822	-70,2	     46,6693	-64,6
     42,2175	     42,5593	-67,9	     46,8535	-63,3
     42,2195	     42,8611	-67,7	     47,6171	-65,1
     42,2214	     43,2138	-69,9	     47,7653	-63,7
     42,2234	     43,3755	-66,8	     47,7949	-63,4
     42,2253	     43,7148	-67,5	     48,1655	-63,9
     42,2273	     44,0259	-68,3	     48,4481	-60,9
     42,2292	     44,0479	-64,9	     48,5022	-61,0
     42,2312	     44,3183	-64,5	        49,1	-62,0
     42,2331	     44,7172	-66,2	     49,3654	-60,7
     42,2351	      44,877	-66,3	     49,2495	-59,6
      42,237	     45,2259	-64,3	     49,4743	-60,1
      42,239	     45,4451	-63,9	     49,7717	-59,8
      42,241	     45,5045	-64,7	      50,181	-58,4
     42,2429	     45,6647	-62,9	     50,2771	-56,9
     42,2449	     46,2838	-64,1	     50,7055	-59,4
     42,2468	     46,4832	-64,6	     51,0404	-58,5
     42,2488	     46,4673	-62,0	     50,9858	-57,0
     42,2507	     46,7257	-61,8	     51,1963	-57,4
     42,2527	     47,1942	-62,9	     51,7783	-56,6
     42,2546	     47,3005	-61,6	     51,9482	-55,7
     42,2566	     47,7369	-59,7	     51,9908	-55,5
     42,2586	     48,0301	-60,7	     52,3784	-55,6
     42,2605	     47,9694	-59,3	     52,6124	-52,8
     42,2625	     48,1727	-58,2	     52,6512	-52,7
     42,2644	     48,8736	-59,4	     53,1748	-53,4
     42,2664	     49,0291	-59,2	     53,4251	-52,9
     42,2683	     49,0002	-57,5	     53,5374	-51,4
     42,2703	     49,3236	-56,7	     53,6022	-52,4
     42,2722	     49,8024	-58,6	     53,8285	-52,4
     42,2742	     49,8619	-57,5	     54,0776	-50,8
     42,2761	     50,3254	-55,9	     54,0893	-49,8
     42,2781	     50,6247	-56,2	      54,482	-51,6
     42,2801	     50,7907	-56,4	     54,6357	-50,3
      42,282	     50,7013	-53,3	     54,4472	-48,8
      42,284	     51,0652	-52,9	     54,6187	-49,0
     42,2859	     51,5262	-53,9	     55,2072	-47,9
     42,2879	     51,5661	-51,3	     55,2153	-46,9
     42,2898	     51,8746	-51,0	     55,2721	-47,1
     42,2918	     52,2305	-53,4	     55,5028	-47,0
     42,2937	     52,3341	-52,1	     55,7159	-46,9
     42,2957	     52,6334	-50,2	     55,6043	-43,4
     42,2977	     52,9065	-49,9	     56,0373	-45,7
     42,2996	     53,0766	-51,1	       56,18	-44,8
     42,3016	     53,1145	-50,0	     56,3216	-44,1
     42,3035	     53,3159	-48,5	     56,1691	-44,3
     42,3055	     53,9165	-49,5	     56,4102	-43,5
     42,3074	     53,9101	-49,8	     56,6029	-42,6
     42,3094	     53,9893	-46,7	     56,5842	-41,7
     42,3113	     54,3044	-46,7	     56,9012	-43,6
     42,3133	     54,3964	-47,2	     57,1397	-42,2
     42,3153	     54,5297	-44,1	     56,9427	-40,0
     42,3172	     54,8774	-45,2	     57,0597	-40,9
     42,3192	     55,0583	-44,7	     57,1819	-40,7
     42,3211	      55,072	-43,8	     57,4723	-39,8
     42,3231	     55,5025	-43,4	     57,3859	-38,6
      42,325	     55,7674	-43,8	     57,4052	-39,1
      42,327	     55,5761	-43,6	     57,6502	-39,5
     42,3289	     55,6246	-42,2	     57,5593	-36,9
     42,3309	     55,8353	-41,2	     57,5797	-36,5
     42,3328	     56,2231	-42,7	      57,996	-37,4
     42,3348	     56,1271	-40,0	      58,019	-36,5
     42,3368	     56,3694	-40,5	     57,7211	-36,0
     42,3387	     56,7542	-41,2	     57,8699	-36,2
     42,3407	     56,7756	-40,9	      57,992	-35,6
     42,3426	     56,8143	-37,7	     58,1072	-34,2
     42,3446	     56,9902	-38,3	     58,0225	-33,9
     42,3465	     57,0293	-37,6	     58,2258	-35,4
     42,3485	     57,0615	-37,0	     58,3608	-34,7
     42,3504	     57,1372	-36,5	     58,1296	-32,7
     42,3524	     57,5774	-36,3	     58,0605	-32,2
     42,3544	     57,6221	-36,9	     58,5398	-32,8
     42,3563	     57,4881	-34,3	     58,5463	-32,5
     42,3583	     57,5923	-33,9	     58,2446	-31,3
     42,3602	     57,9839	-34,8	     58,3128	-31,4
     42,3622	     57,8884	-34,4	     58,5306	-29,8
     42,3641	     58,0156	-33,5	     58,4501	-29,6
     42,3661	     58,1836	-32,7	     58,4446	-30,5
      42,368	     58,0705	-33,8	     58,6281	-29,8
       42,37	      58,048	-32,6	     58,6181	-29,0
     42,3719	     58,0719	-31,7	      58,309	-28,2
     42,3739	     58,4856	-31,9	     58,2702	-28,6
     42,3759	     58,4047	-32,5	      58,661	-28,2
     42,3778	     58,2113	-30,1	     58,6206	-27,3
     42,3798	      58,478	-29,7	      58,256	-27,5
     42,3817	     58,6586	-30,5	       58,39	-27,7
     42,3837	     58,3603	-27,8	     58,6026	-26,5
     42,3856	     58,5024	-27,7	     58,4426	-25,4
     42,3876	     58,7886	-28,0	      58,418	-26,4
     42,3895	     58,7261	-28,1	     58,6475	-26,3
     42,3915	     58,6301	-26,0	     58,4004	-24,6
     42,3935	     58,7658	-25,5	     58,2491	-24,1
     42,3954	      58,916	-26,2	     58,1876	-24,4
     42,3974	     58,6339	-26,2	     58,5886	-25,0
     42,3993	     58,5854	-25,2	     58,5908	-23,3
     42,4013	     58,9919	-24,4	     58,1023	-23,2
     42,4032	     59,0213	-25,1	     58,4848	-22,5
     42,4052	     58,5811	-24,3	      58,402	-21,8
     42,4071	     58,5865	-23,3	     58,3642	-21,0
     42,4091	     58,9908	-23,6	     58,1315	-21,5
      42,411	     58,5749	-23,8	     58,1147	-21,4
      42,413	     58,5238	-23,4	      58,072	-19,9
      42,415	     58,8325	-22,8	     57,9216	-19,4
     42,4169	     58,8255	-22,3	     57,9774	-21,0
     42,4189	      58,763	-22,9	     57,9758	-20,6
     42,4208	     58,5309	-21,0	     57,7704	-19,5
     42,4228	     58,6874	-20,8	     57,6848	-18,6
     42,4247	     58,7186	-21,5	      57,619	-18,2
     42,4267	      58,614	-21,8	     57,9742	-18,6
     42,4286	      58,448	-18,7	     57,8787	-17,6
     42,4306	     58,5059	-18,8	     57,4631	-18,6
     42,4326	     58,4566	-19,3	     57,4552	-18,7
     42,4345	      58,362	-19,2	     57,8167	-17,4
     42,4365	     58,3963	-17,3	     57,6378	-16,5
     42,4384	     58,3944	-17,1	     57,4435	-17,5
     42,4404	     58,1017	-18,0	     57,5086	-18,0
     42,4423	     58,0308	-16,6	     57,4061	-15,0
     42,4443	     58,3306	-16,2	     57,2365	-15,2
     42,4462	     58,3203	-17,0	     57,0682	-15,9
     42,4482	     57,8594	-16,1	     57,3774	-15,9
     42,4501	     57,7299	-15,4	     56,9359	-14,1
     42,4521	      58,138	-15,4	     56,8202	-14,2
     42,4541	     58,0168	-15,0	      57,026	-14,6
      42,456	     57,5075	-15,1	     57,0239	-14,5
      42,458	     57,5082	-14,4	     56,6649	-12,8
     42,4599	     57,7553	-15,5	     56,6464	-12,6
     42,4619	     57,6715	-14,8	     56,6925	-12,8
     42,4638	     57,3656	-13,4	     56,7058	-13,7
     42,4658	     57,4189	-13,1	     56,3177	-11,5
     42,4677	     57,5484	-12,8	     56,1713	-11,2
     42,4697	     57,2961	-13,4	     56,3285	-11,8
     42,4717	     57,1764	-11,3	     56,3151	-11,0
     42,4736	      57,241	-12,5	     56,1726	-10,6
     42,4756	      57,124	-12,3	     55,6911	-11,5
     42,4775	     56,9558	-12,5	     56,0152	-11,4
     42,4795	     56,7631	-10,4	     55,9357	-9,6
     42,4814	     56,7423	-10,1	      55,777	-9,6
     42,4834	     56,7604	-10,7	     55,4039	-10,7
     42,4853	     56,6644	-10,9	     55,5296	-10,3
     42,4873	     56,4349	-8,9	     55,5772	-8,9
     42,4892	     56,4224	-8,6	     55,4131	-8,5
     42,4912	     56,4952	-8,6	     55,3127	-10,2
     42,4932	     56,1359	-8,1	     55,2971	-9,0
     42,4951	     56,0896	-7,6	     55,3053	-8,5
     42,4971	     56,1342	-7,1	     55,1076	-7,4
      42,499	     56,0138	-7,3	     54,8959	-9,3
      42,501	     55,7747	-7,9	     54,8996	-8,6
     42,5029	     55,8103	-6,2	     54,9149	-6,4
     42,5049	     55,8281	-3,2	     54,7122	-6,2
     42,5068	     55,6537	-8,8	     54,6234	-6,6
     42,5088	     55,5082	-7,0	     54,6714	-7,6
     42,5108	      55,584	-6,0	     54,3857	-5,1
     42,5127	     55,5432	-5,0	     54,1496	-5,2
     42,5147	     55,1669	-6,7	     54,3835	-5,7
     42,5166	     55,0758	-5,9	     54,3819	-6,0
     42,5186	     54,9026	-4,9	     53,9976	-4,1
     42,5205	     55,1544	-4,4	     53,7934	-4,2
     42,5225	     54,6334	-5,6	     53,7434	-5,4
     42,5244	     54,4841	-4,7	     53,7429	-4,4
     42,5264	     54,7237	-3,8	     53,5671	-3,2
     42,5283	     54,7344	-3,5	     53,3912	-3,0
     42,5303	     54,2836	-4,6	     53,2501	-3,2
     42,5323	     54,2019	-4,3	     53,2106	-4,0
     42,5342	     54,3676	-3,3	     53,1651	-1,0
     42,5362	     54,2831	-2,6	     53,0895	-2,2
     42,5381	     53,7864	-3,3	     52,7953	-2,4
     42,5401	     53,6492	-2,7	     52,8462	-2,5
      42,542	      53,845	-1,2	     52,8144	-0,7
      42,544	      53,838	-2,4	      52,662	-0,4
     42,5459	     53,3065	-1,2	     52,4853	-1,6
     42,5479	     53,2508	-1,3	     52,4676	-1,1
     42,5499	     53,2719	 0,1	      52,343	 0,5
     42,5518	     53,4059	-0,9	     52,1884	 0,6
     42,5538	      52,874	-0,8	      52,074	-1,6
     42,5557	     52,8707	-1,8	     52,1822	-0,6
     42,5577	      53,073	 1,3	     51,9561	 0,3
     42,5596	     52,9163	 0,3	     51,6752	 1,4
     42,5616	     52,7762	-1,1	     51,5041	 0,9
     42,5635	     52,3144	 1,3	      51,713	 0,7
     42,5655	     52,2506	 2,0	     51,6749	 1,4
     42,5674	      52,498	 1,1	     51,2265	 1,1
     42,5694	     52,3459	 1,2	     51,0196	 2,1
     42,5714	      51,825	 1,9	     51,2791	 0,7
     42,5733	     51,8714	 1,8	     51,1675	 2,2
     42,5753	     52,0884	 2,1	     51,0472	 2,7
     42,5772	     51,9406	 3,1	     50,5836	 2,1
     42,5792	      51,447	 3,2	     50,4749	 2,0
     42,5811	     51,4071	 4,0	     50,7662	 2,1
     42,5831	     51,5391	 3,7	     50,6209	 4,3
      42,585	     51,3583	 3,3	     50,0819	 2,8
      42,587	     50,9411	 4,3	     50,0787	 3,5
      42,589	     50,7768	 5,5	     50,3808	 3,4
     42,5909	     51,0181	 4,5	     50,2115	 4,3
     42,5929	     50,7783	 4,3	     49,7395	 2,8
     42,5948	     50,4062	 5,2	     49,6478	 4,2
     42,5968	     50,4229	 5,4	     49,8884	 4,4
     42,5987	     50,6998	 4,8	     49,7364	 4,6
     42,6007	     50,5008	 5,2	      49,288	 2,9
     42,6026	     50,3109	 4,8	     49,1368	 4,2
     42,6046	     50,0011	 6,3	     49,4779	 5,1
     42,6065	     49,9253	 7,1	     49,3427	 5,4
     42,6085	     50,0135	 5,7	     48,7376	 5,1
     42,6105	     49,7078	 6,2	     48,6423	 5,1
     42,6124	     49,3253	 7,0	     48,9889	 5,5
     42,6144	     49,2899	 7,8	      48,953	 6,0
     42,6163	     49,4051	 6,6	     48,7975	 6,4
     42,6183	     49,1484	 6,9	     48,2646	 5,8
     42,6202	     48,8579	 6,8	     48,1113	 6,4
     42,6222	     48,9228	 8,0	      48,372	 6,8
     42,6241	     48,9577	 6,7	     48,3098	 7,0
     42,6261	     48,8283	 7,6	     47,7431	 6,9
     42,6281	     48,4561	 8,0	     47,9264	 7,0
       42,63	     48,4685	 8,9	     47,8971	 6,9
      42,632	     48,5978	 7,8	     47,8168	 7,7
     42,6339	     48,4199	 8,5	     47,3168	 7,7
     42,6359	     47,9252	 8,0	     47,1198	 8,2
     42,6378	     47,8704	 9,9	     47,3769	 7,8
     42,6398	     48,0843	 8,7	     47,3085	 8,3
     42,6417	     47,9471	 8,1	       46,89	 8,7
     42,6437	     47,8293	 9,3	     46,7098	 9,6
     42,6456	     47,4785	10,0	     46,7683	 8,2
     42,6476	     47,3754	10,5	     46,7543	 9,0
     42,6496	     47,4756	10,2	     46,4282	 9,6
     42,6515	     47,2548	 9,5	     46,3136	10,2
     42,6535	     46,9029	10,7	     46,3894	 9,3
     42,6554	     46,8971	11,3	     46,3694	 9,8
     42,6574	     46,9793	 9,9	     46,1667	10,6
     42,6593	     46,7579	10,1	     45,8873	10,8
     42,6613	     46,5772	10,8	     45,7633	 9,6
     42,6632	     46,4396	11,7	     45,6986	10,4
     42,6652	     46,3328	12,8	     45,8057	11,4
     42,6672	     46,2997	11,6	     45,5779	11,9
     42,6691	      46,191	11,6	     45,3767	11,5
     42,6711	     45,7525	12,4	       45,21	11,0
      42,673	     46,0065	11,5	     45,2521	11,0
      42,675	     45,9599	12,3	     45,1382	12,4
     42,6769	     45,7901	12,3	     45,0787	12,9
     42,6789	     45,3447	13,0	     44,8526	11,5
     42,6808	     45,2418	13,5	     44,7373	11,3
     42,6828	     45,4531	12,0	     44,8106	12,6
     42,6847	     45,3551	12,9	     44,6109	12,2
     42,6867	     44,8274	12,8	     44,1091	12,1
     42,6887	     44,6984	14,2	     44,0492	12,2
     42,6906	     44,9032	14,0	     44,2505	12,9
     42,6926	     44,8919	13,8	     44,0683	13,2
     42,6945	     44,3864	13,5	     43,6016	12,8
     42,6965	     44,2454	13,6	     43,5199	13,7
     42,6984	     44,4287	14,0	     43,8529	12,7
     42,7004	      44,403	14,9	     43,7752	14,1
     42,7023	     43,9109	14,6	     43,3054	14,4
     42,7043	     43,7777	14,6	     43,2367	14,0
     42,7063	     43,7399	15,2	     43,4245	12,8
     42,7082	      43,709	16,2	     43,4503	14,4
     42,7102	     43,4973	14,3	     43,3633	14,5
     42,7121	     43,3299	15,3	     42,8587	15,2
     42,7141	     43,1727	15,6	     42,6959	15,8
      42,716	     43,2881	16,5	     42,9072	14,4
      42,718	     43,2819	16,9	     42,8933	15,5
     42,7199	     42,9923	15,8	     42,4394	15,9
     42,7219	     42,7801	15,9	     42,3001	16,7
     42,7239	     42,7822	17,0	     42,3574	14,4
     42,7258	     42,7069	17,4	     42,3753	15,4
     42,7278	      42,574	16,8	     42,3732	16,3
     42,7297	     42,4498	17,2	     41,8617	16,2
     42,7317	     42,2825	17,7	     41,7136	17,8
     42,7336	     42,2754	17,7	     41,7949	16,7
     42,7356	     42,1771	18,2	     41,7319	17,2
     42,7375	     42,0448	17,3	     41,6169	18,0
     42,7395	     41,8931	17,8	     41,5053	18,6
     42,7414	     41,6817	19,0	     41,2561	17,6
     42,7434	     41,5869	18,8	      41,209	16,8
     42,7454	     41,6163	17,7	     41,2721	18,0
     42,7473	     41,4169	18,6	     41,1696	18,8
     42,7493	     41,2683	17,7	     40,6351	18,5
     42,7512	     40,9828	19,2	     40,5692	18,2
     42,7532	     40,9538	19,7	     40,8905	18,1
     42,7551	     41,0587	18,8	     40,8376	18,8
     42,7571	     40,8972	18,7	     40,3547	19,8
      42,759	     40,4493	20,3	     40,2618	19,3
      42,761	     40,3796	19,8	     40,3364	18,3
      42,763	     40,6686	20,6	     40,2851	19,1
     42,7649	     40,6076	19,8	     40,1502	20,3
     42,7669	     40,1018	20,2	     40,0709	20,1
     42,7688	     39,9741	20,1	     39,7075	19,9
     42,7708	      40,192	21,1	      39,708	19,0
     42,7727	     40,1008	21,0	     39,8834	20,3
     42,7747	     39,7536	20,6	      39,761	19,8
     42,7766	     39,6092	20,8	     39,2517	20,5
     42,7786	     39,5337	21,9	     39,1691	20,5
     42,7805	     39,4608	21,2	      39,378	20,2
     42,7825	     39,6721	21,4	     39,3118	19,0
     42,7845	     39,4056	20,6	      38,978	21,0
     42,7864	     38,8884	21,5	     38,8693	21,1
     42,7884	     38,8332	21,8	       38,77	20,6
     42,7903	     38,8402	20,8	     38,6992	19,1
     42,7923	     39,1088	21,1	     38,7794	21,5
     42,7942	     39,0525	20,8	     38,6777	20,4
     42,7962	     38,4552	21,4	     38,2157	20,7
     42,7981	     38,3992	21,9	      38,127	21,2
     42,8001	     38,6821	22,6	     38,4314	21,5
     42,8021	     38,6457	22,3	     38,2918	21,1
      42,804	     38,1542	21,9	     37,8103	21,3
      42,806	     37,9694	21,9	      37,693	21,4
     42,8079	     38,0002	22,6	     37,7581	21,1
     42,8099	     38,0068	22,7	      37,757	21,8
     42,8118	     37,9046	22,0	      37,677	21,0
     42,8138	     37,7704	22,1	     37,4238	22,2
     42,8157	     37,4611	24,1	     37,2182	23,4
     42,8177	     37,3859	23,6	     37,1716	22,2
     42,8196	     37,6622	22,8	     37,0513	22,2
     42,8216	     37,4951	23,4	     37,2742	23,3
     42,8236	     37,0518	23,0	     37,1179	23,7
     42,8255	     36,9302	24,2	     36,6238	22,3
     42,8275	     37,0577	24,1	     36,5855	24,3
     42,8294	     37,0327	25,0	     36,8235	24,8
     42,8314	     36,7544	23,9	     36,7385	23,7
     42,8333	     36,5373	24,3	     36,4176	24,6
     42,8353	      36,433	24,5	     36,3398	24,1
     42,8372	     36,3753	25,4	     36,0639	23,3
     42,8392	      36,284	25,1	     36,0608	24,1
     42,8412	     36,4405	25,5	      36,125	24,2
     42,8431	      36,022	25,5	     36,1334	25,2
     42,8451	     35,9252	25,8	     35,6986	25,4
      42,847	     36,0586	25,9	     35,6715	23,6
      42,849	     35,9735	26,1	     35,9348	25,0
     42,8509	     35,8322	25,6	     35,8965	23,6
     42,8529	     35,7123	25,6	     35,4892	25,8
     42,8548	     35,3486	26,1	     35,3902	25,2
     42,8568	     35,3235	26,1	     35,2325	24,7
     42,8587	     35,3086	25,7	     35,1955	24,3
     42,8607	     35,3028	24,6	      35,116	24,3
     42,8627	     35,2545	25,3	      35,135	25,2
     42,8646	     34,7929	25,7	     35,0213	25,7
     42,8666	      34,756	25,5	     34,5532	24,4
     42,8685	     35,0325	26,0	     34,4388	25,6
     42,8705	     34,9052	25,9	      34,781	24,8
     42,8724	     34,7945	25,4	     34,6257	26,0
     42,8744	     34,6992	26,7	      34,516	26,1
     42,8763	     34,4576	26,8	     34,2923	25,7
     42,8783	     34,4217	27,6	     34,2374	25,8
     42,8803	     34,5945	26,5	     34,2403	26,5
     42,8822	     34,4323	26,9	     34,3074	27,3
     42,8842	     33,9112	27,4	     34,3349	27,7
     42,8861	     33,8205	28,1	     33,7475	26,9
     42,8881	     34,0722	28,2	     33,6422	26,9
       42,89	     33,9576	28,6	     33,9118	26,8
      42,892	        33,7	27,5	     33,8718	26,6
     42,8939	     33,5164	27,2	     33,6661	27,9
     42,8959	     33,5877	28,4	      33,592	28,0
     42,8979	     33,5511	28,8	     33,1807	27,7
     42,8998	     33,4826	28,9	     33,1063	27,0
     42,9018	       33,47	28,4	     33,4396	27,1
     42,9037	     33,2417	27,5	     33,2027	28,6
     42,9057	     32,8879	28,2	     33,0396	27,6
     42,9076	      32,817	28,5	     32,7912	27,5
     42,9096	     33,1848	29,3	     32,8052	26,9
     42,9115	     33,0581	29,0	     32,7703	27,1
     42,9135	     32,6716	28,8	     32,8402	27,8
     42,9154	     32,4558	28,4	     32,7209	28,2
     42,9174	     32,6444	29,1	      32,274	28,2
     42,9194	     32,6399	29,2	     32,1918	28,8
     42,9213	     32,4842	29,0	     32,2525	28,0
     42,9233	     32,3866	28,0	     32,2083	28,6
     42,9252	     32,3627	28,8	       32,28	29,0
     42,9272	     32,0343	28,9	     32,1707	29,7
     42,9291	     31,9987	30,1	     31,6893	30,0
     42,9311	     32,2284	29,0	     31,6529	30,0
      42,933	     32,2044	29,0	     31,9297	29,3
      42,935	     31,7618	28,6	     31,9788	29,0
      42,937	     31,6734	30,2	     31,6162	30,7
     42,9389	     31,8353	30,6	     31,5851	30,4
     42,9409	     31,6431	31,1	     31,3268	29,8
     42,9428	     31,5436	30,4	     31,2303	29,1
     42,9448	     31,3792	29,6	     31,5757	30,6
     42,9467	     31,0335	31,1	     31,5571	29,2
     42,9487	     30,9369	30,7	     31,0742	30,4
     42,9506	     31,2292	31,0	     31,0239	30,1
     42,9526	     31,1468	30,7	     31,0293	29,2
     42,9545	     31,2103	30,4	     30,9896	29,0
     42,9565	     30,7811	30,2	     30,9139	29,4
     42,9585	     30,7224	30,2	     30,8732	30,0
     42,9604	     30,7682	31,4	     30,7078	30,9
     42,9624	     30,7207	31,0	     30,3083	30,3
     42,9643	     30,7963	30,7	     30,2492	31,4
     42,9663	     30,5839	30,6	     30,4839	30,3
     42,9682	     30,0722	31,5	      30,289	31,4
     42,9702	     30,1079	31,5	     30,2692	31,7
     42,9721	     30,3534	30,9	     30,1538	31,9
     42,9741	     30,3021	31,5	     29,8417	31,6
     42,9761	      29,999	30,3	     29,8578	31,3
      42,978	     29,9606	31,8	     30,2399	31,6
       42,98	     29,7163	32,3	     30,1919	31,2
     42,9819	     29,6204	32,7	     29,7543	31,6
     42,9839	      29,931	32,9	     29,6018	31,3
     42,9858	     29,8194	32,9	     29,5481	31,3
     42,9878	     29,5763	32,8	     29,4385	30,3
     42,9897	     29,4808	32,0	     29,7257	31,6
     42,9917	     29,2999	33,1	     29,6136	31,4
     42,9936	      29,217	33,2	     29,0772	31,8
     42,9956	     29,5297	31,9	     28,9867	32,5
     42,9976	     29,3808	32,1	     29,2042	32,0
     42,9995	     28,9031	32,7	       29,15	31,3
     43,0015	     28,8969	32,0	     29,0893	32,3
     43,0034	     28,9831	33,4	     29,0968	32,6
     43,0054	     28,8907	32,8	     28,5957	33,0
     43,0073	     29,0755	32,4	      28,517	33,1
     43,0093	     29,0095	32,6	     28,7457	33,1
     43,0112	     28,4637	32,7	     28,6796	32,9
     43,0132	     28,4382	33,4	     28,6666	34,1
     43,0152	     28,6297	33,7	      28,654	34,0
     43,0171	     28,5411	33,5	     28,6619	32,8
     43,0191	     28,5994	32,6	     28,1374	32,5
      43,021	     28,4818	33,5	     27,9947	32,7
      43,023	     28,0722	34,1	     28,3755	32,5
     43,0249	     28,0547	34,1	     28,3228	31,9
     43,0269	     27,8847	34,9	     27,9793	33,4
     43,0288	     28,1157	34,7	     27,8036	33,3
     43,0308	     28,0955	34,0	     27,7502	34,2
     43,0327	     27,8208	33,1	     27,7941	32,8
     43,0347	     27,7473	33,5	      27,704	33,1
     43,0367	     27,5361	34,4	     27,8566	33,8
     43,0386	     27,4705	33,9	     27,8146	34,7
     43,0406	       27,84	33,7	     27,3398	34,9
     43,0425	     27,7836	33,4	     27,2788	33,8
     43,0445	     27,2989	33,7	     27,5089	33,3
     43,0464	     27,3274	33,7	     27,4219	33,5
     43,0484	     27,2063	34,7	     27,3744	32,9
     43,0503	      27,181	36,0	      27,393	34,1
     43,0523	     27,4403	34,7	     27,3632	33,7
     43,0543	     27,3591	35,3	     26,8972	34,9
     43,0562	     26,9004	34,5	     26,9073	34,8
     43,0582	     26,7973	34,7	     27,0464	33,4
     43,0601	      26,846	36,2	     26,9447	34,2
     43,0621	     26,7065	35,5	     26,9735	34,8
      43,064	     26,7024	35,8	      26,903	35,4
      43,066	     26,8905	34,1	     26,4273	34,6
     43,0679	      26,942	34,1	      26,379	35,2
     43,0699	     26,4722	34,7	     26,6462	34,9
     43,0718	     26,4339	34,6	     26,5771	34,6
     43,0738	     26,5679	35,3	      26,514	36,0
     43,0758	     26,5306	35,6	     26,5318	35,5
     43,0777	     26,4305	34,1	     26,0529	35,9
     43,0797	     26,3787	35,1	     25,9993	34,9
     43,0816	     25,9037	35,8	     26,2972	33,8
     43,0836	     25,8721	36,5	     26,1623	34,1
     43,0855	     26,1374	36,4	     26,0438	34,3
     43,0875	     26,0997	36,9	     26,0447	35,6
     43,0894	     26,0515	36,6	      26,075	36,3
     43,0914	     25,9129	36,2	     25,5806	36,3
     43,0934	     25,8299	35,3	     25,4959	36,3
     43,0953	     25,4516	36,4	     25,7105	36,1
     43,0973	     25,3488	35,0	     25,6937	34,8
     43,0992	     25,6576	35,9	     25,8157	36,8
     43,1012	     25,6241	36,5	     25,3922	37,5
     43,1031	     25,6487	34,7	     25,3831	36,8
     43,1051	     25,6885	35,7	      25,223	35,4
      43,107	     25,1625	36,9	     25,1934	35,3
      43,109	     25,2783	36,6	     25,1122	35,7
     43,1109	     25,2425	37,5	     25,3222	35,2
     43,1129	     25,1447	37,8	     25,3664	35,9
     43,1149	     25,3011	36,4	      24,877	37,0
     43,1168	     25,2117	36,8	     24,8592	38,3
     43,1188	     24,6927	37,2	     24,7142	36,8
     43,1207	     24,7171	36,4	     24,6749	37,2
     43,1227	     24,8951	37,2	     25,0051	36,0
     43,1246	     24,7515	37,2	     25,0167	36,9
     43,1266	     24,9952	37,2	     24,8171	36,9
     43,1285	     24,9422	37,0	     24,7804	36,8
     43,1305	     24,5065	36,3	     24,3627	37,2
     43,1325	     24,4759	37,4	     24,2288	36,5
     43,1344	     24,3696	37,2	     24,5491	35,6
     43,1364	     24,3515	38,2	     24,5133	36,3
     43,1383	     24,6657	36,7	     24,4881	36,1
     43,1403	     24,6494	38,3	     24,5049	37,6
     43,1422	     24,1678	38,2	     24,0087	38,0
     43,1442	     24,0926	37,7	     23,9626	38,3
     43,1461	     23,9129	39,2	     23,9454	36,7
     43,1481	     23,8424	38,0	     23,9647	37,5
       43,15	     24,2046	37,3	     24,1813	37,8
      43,152	     24,1065	37,1	     24,0994	36,5
      43,154	     24,0473	37,5	     23,7564	38,5
     43,1559	     24,0399	36,9	     23,8084	37,8
     43,1579	     23,5841	38,2	     23,6488	37,2
     43,1598	     23,5329	39,2	     23,5541	37,1
     43,1618	     23,8154	37,5	     23,5307	37,6
     43,1637	     23,8056	38,8	     23,8607	37,2
     43,1657	     23,7799	37,8	     23,5671	38,6
     43,1676	     23,6737	38,2	     23,5354	38,4
     43,1696	     23,6277	39,1	     23,1418	39,1
     43,1716	     23,1729	38,6	     23,0942	39,4
     43,1735	     23,1597	37,6	     23,3185	37,8
     43,1755	     23,3706	38,9	     23,3671	37,6
     43,1774	     23,3333	38,9	     23,3202	37,1
     43,1794	     23,3758	38,3	     23,3549	38,4
     43,1813	     23,3739	37,3	     23,2673	37,8
     43,1833	      22,915	38,7	     22,8196	38,0
     43,1852	     22,9284	39,1	     22,7547	38,8
     43,1872	     22,9134	39,0	     22,8614	38,1
     43,1891	     22,7929	39,5	     22,8397	38,6
     43,1911	     23,1303	38,9	     22,9756	38,7
     43,1931	     23,0636	38,8	     22,9261	39,5
      43,195	     22,8851	39,0	     22,5434	40,7
      43,197	     22,3406	39,7	     22,5356	39,5
     43,1989	     22,3401	38,9	     22,5076	38,7
     43,2009	     22,5646	39,7	     22,4206	37,8
     43,2028	     22,4653	39,6	     22,3054	38,1
     43,2048	      22,607	38,1	     22,6862	37,7
     43,2067	     22,5817	38,7	     22,6164	38,5
     43,2087	     22,5853	39,6	     22,4062	39,3
     43,2107	     22,1926	40,3	     22,3064	39,7
     43,2126	     22,1513	39,7	     21,9728	40,0
     43,2146	     22,1911	41,8	     21,9356	40,1
     43,2165	      22,027	40,4	      22,341	39,2
     43,2185	     22,2906	39,4	     22,2917	39,4
     43,2204	     22,2231	39,1	     22,3019	39,6
     43,2224	     21,9967	39,5	     22,2326	39,1
     43,2243	     21,9789	38,0	     21,7881	39,9
     43,2263	     21,7051	39,7	     21,7199	39,8
     43,2282	     21,6944	40,3	     21,7186	38,7
     43,2302	     22,0288	40,6	     21,6609	39,9
     43,2322	      21,858	40,8	     21,6187	40,0
     43,2341	     21,9622	39,8	     21,8917	39,0
     43,2361	     21,8979	39,7	     21,8879	39,5
      43,238	     21,4642	40,6	     21,6231	40,6
       43,24	     21,4271	39,9	     21,6627	40,0
     43,2419	     21,3115	41,4	     21,2593	40,8
     43,2439	     21,3397	40,1	     21,4125	38,9
     43,2458	     21,3846	40,4	     21,3634	39,6
     43,2478	     21,6929	39,8	     21,6469	39,8
     43,2498	     21,6167	39,8	     21,6417	40,5
     43,2517	     21,2684	40,7	     21,2971	40,2
     43,2537	     21,1806	40,3	     21,3245	41,3
     43,2556	     20,9505	42,0	     20,8722	40,8
     43,2576	     20,8583	41,3	     20,8487	41,2
     43,2595	     21,1996	41,7	     20,8415	40,5
     43,2615	     21,2728	40,7	     21,0523	38,9
     43,2634	     21,2442	39,9	      20,945	39,3
     43,2654	     20,8944	40,5	     21,2391	39,4
     43,2673	     20,8528	39,8	     20,8479	41,0
     43,2693	     20,6018	40,6	     20,8468	41,1
     43,2713	     20,6211	41,7	     20,9306	41,6
     43,2732	     21,0398	41,3	     20,5609	41,5
     43,2752	     20,8569	42,2	     20,5183	41,1
     43,2771	     20,7803	41,9	      20,705	40,4
     43,2791	     20,7508	40,6	     20,5119	39,5
      43,281	     20,7864	39,7	     20,8233	40,1
      43,283	      20,326	40,9	     20,7806	40,4
     43,2849	     20,3673	41,0	     20,3988	41,1
     43,2869	     20,3328	41,6	      20,309	41,4
     43,2889	     20,3377	42,3	     20,1867	41,2
     43,2908	     20,6646	40,8	     20,0776	41,8
     43,2928	     20,6252	41,4	     20,3528	41,2
     43,2947	      20,393	40,5	     20,2753	40,7
     43,2967	     20,2841	41,9	     20,4819	41,1
     43,2986	     19,8621	41,6	     20,4852	40,4
     43,3006	     19,8902	41,8	     20,1529	41,8
     43,3025	     20,1136	42,4	     20,0901	41,3
     43,3045	     19,9724	41,6	      19,882	40,5
     43,3064	     20,2706	41,0	      19,773	41,3
     43,3084	     20,2308	41,2	     20,0823	41,0
     43,3104	      19,888	40,4	     19,9297	40,9
     43,3123	     19,9092	41,5	     20,0428	42,7
     43,3143	     19,6513	43,4	     20,1429	41,4
     43,3162	      19,545	42,7	     19,7937	43,6
     43,3182	     19,4779	42,3	     19,8108	40,9
     43,3201	     19,7616	42,0	     19,4903	41,4
     43,3221	     19,6973	41,6	     19,3899	41,9
      43,324	     19,9067	40,5	     19,7121	40,3
      43,326	     19,8888	41,6	     19,6037	40,8
      43,328	     19,4301	42,0	     19,5501	42,1
     43,3299	     19,4061	42,3	     19,7368	41,4
     43,3319	     19,1729	43,2	     19,7345	41,6
     43,3338	     19,1411	43,7	      19,328	43,0
     43,3358	     19,5052	42,6	     19,3323	42,9
     43,3377	     19,4639	42,5	     18,9758	42,7
     43,3397	     19,4836	41,4	     19,2902	40,8
     43,3416	     19,5538	41,5	     19,0971	40,7
     43,3436	     19,0811	41,8	     19,4137	41,5
     43,3456	     19,0715	42,1	     19,3959	41,5
     43,3475	     19,0241	42,5	     19,3402	43,1
     43,3495	     18,8675	43,4	      19,328	42,6
     43,3514	     18,8266	43,7	     18,8387	43,0
     43,3534	     19,2253	43,2	     18,8734	43,0
     43,3553	     19,1519	42,5	     18,7912	42,2
     43,3573	     19,0929	41,7	     18,7228	42,3
     43,3592	     19,0976	40,9	     19,1108	41,6
     43,3612	     18,7205	41,5	     19,0064	41,8
     43,3631	     18,7947	41,5	     18,9838	42,4
     43,3651	     18,6734	42,7	     19,0482	42,4
     43,3671	     18,5908	44,2	     18,5478	43,5
      43,369	     18,9508	43,7	     18,6336	43,0
      43,371	      18,844	43,5	     18,4705	42,5
     43,3729	     18,7383	42,1	     18,3841	42,4
     43,3749	     18,7929	41,7	     18,2852	43,2
     43,3768	     18,7625	42,0	     18,6089	41,9
     43,3788	     18,3449	42,4	      18,508	42,5
     43,3807	      18,336	42,4	     18,7334	42,7
     43,3827	     18,2733	43,9	     18,6967	42,1
     43,3847	      18,205	44,6	     18,4181	44,0
     43,3866	     18,5467	43,4	     18,4049	43,1
     43,3886	     18,4475	43,7	     18,0716	42,8
     43,3905	     18,4603	42,4	     18,0097	44,0
     43,3925	     18,5333	41,8	     18,1531	42,3
     43,3944	     18,1537	42,8	     18,1086	42,8
     43,3964	       18,16	43,1	     18,4493	43,0
     43,3983	     17,8106	44,1	     18,4821	42,6
     43,4003	     17,7665	43,9	     18,2823	43,5
     43,4022	     18,2049	44,5	     18,1971	42,7
     43,4042	     18,1414	44,8	     17,7434	43,9
     43,4062	     18,0841	44,4	     17,7764	44,4
     43,4081	     18,1895	42,8	     17,6921	42,8
     43,4101	     18,1659	42,5	     17,6612	44,2
      43,412	     17,8739	42,6	     17,8948	42,6
      43,414	     17,9805	42,7	     17,8014	43,4
     43,4159	      17,588	44,4	      18,117	42,8
     43,4179	     17,5644	44,4	     18,0074	42,3
     43,4198	     17,6473	45,0	     17,8258	44,0
     43,4218	     17,5983	44,5	     17,7959	43,3
     43,4238	     17,9066	43,0	     17,4524	43,8
     43,4257	     17,7985	43,1	     17,3983	44,9
     43,4277	     17,7615	43,0	     17,4246	43,3
     43,4296	     17,7627	42,5	     17,3798	44,7
     43,4316	     17,3371	43,7	     17,8483	43,0
     43,4335	     17,3588	44,4	      17,711	42,3
     43,4355	     17,1918	46,1	     17,7072	43,2
     43,4374	     17,0468	44,6	     17,6176	42,7
     43,4394	     17,3185	44,9	     17,3171	44,4
     43,4413	     17,2509	44,1	     17,3118	45,0
     43,4433	     17,6402	43,3	     17,0274	45,9
     43,4453	     17,5964	43,9	     17,0879	45,1
     43,4472	     17,4273	43,2	     17,0646	44,2
     43,4492	     17,4095	44,0	     17,0773	42,8
     43,4511	     17,2837	44,1	     16,8941	43,3
     43,4531	     16,9126	45,0	     17,2745	42,9
      43,455	      17,011	43,7	     17,3098	43,4
      43,457	     16,9767	45,0	     17,3164	43,6
     43,4589	     16,9546	45,4	      16,944	46,2
     43,4609	     17,1019	45,1	     17,1256	45,1
     43,4629	     17,2409	43,9	     16,7567	45,4
     43,4648	     17,1956	44,8	     16,6368	45,3
     43,4668	     17,0169	44,4	     16,6989	45,6
     43,4687	     16,9852	44,1	     16,6626	44,2
     43,4707	     16,5382	44,3	     16,5868	44,5
     43,4726	     16,7146	43,4	     16,9349	43,4
     43,4746	      16,638	45,6	     16,8835	43,9
     43,4765	      16,567	45,3	     17,0501	43,8
     43,4785	     16,4918	46,0	     16,9551	42,4
     43,4804	     16,7321	45,4	     16,6547	44,5
     43,4824	     16,6381	45,2	     16,7245	44,6
     43,4844	     16,8565	44,4	     16,4107	46,4
     43,4863	     16,8344	43,7	     16,5215	47,1
     43,4883	     16,7058	42,6	     16,3779	45,5
     43,4902	     16,8095	44,3	     16,3939	45,0
     43,4922	     16,3018	44,8	     16,6326	42,7
     43,4941	     16,3037	45,6	     16,3993	43,6
     43,4961	       16,21	46,9	      16,597	43,6
      43,498	     16,1219	46,5	     16,6412	44,4
        43,5	      16,205	44,1	     16,8391	45,1

