X-Data [Hz]	Laser (M - Filtered) [m/s]	Phase [Deg]	
	002: [07-09-24 09:52]	
          42	  0,00488746	76,6
      42,002	  0,00495602	77,4
     42,0039	  0,00488718	74,4
     42,0059	  0,00477109	71,4
     42,0078	  0,00469784	82,3
     42,0098	  0,00479068	78,2
     42,0117	  0,00485958	81,4
     42,0137	  0,00483725	82,0
     42,0156	  0,00489007	72,2
     42,0176	  0,00489706	73,8
     42,0196	  0,00482227	79,1
     42,0215	  0,00480307	76,1
     42,0235	  0,00488109	79,7
     42,0254	  0,00491455	79,8
     42,0274	  0,00492404	76,4
     42,0293	  0,00493713	77,4
     42,0313	  0,00495847	77,9
     42,0332	  0,00494313	78,3
     42,0352	  0,00496823	77,5
     42,0371	  0,00493112	79,6
     42,0391	  0,00493613	77,8
     42,0411	  0,00487499	78,6
      42,043	  0,00494187	81,0
      42,045	   0,0049651	76,3
     42,0469	  0,00506406	81,5
     42,0489	  0,00503117	81,9
     42,0508	  0,00508038	78,7
     42,0528	  0,00508186	79,6
     42,0547	  0,00500873	81,8
     42,0567	  0,00499881	74,6
     42,0587	  0,00496158	77,2
     42,0606	  0,00507375	78,7
     42,0626	   0,0049983	78,1
     42,0645	  0,00505106	79,8
     42,0665	   0,0051179	81,8
     42,0684	  0,00513442	76,2
     42,0704	  0,00516731	77,2
     42,0723	  0,00518855	82,8
     42,0743	  0,00515291	77,1
     42,0762	  0,00512249	74,7
     42,0782	   0,0050957	81,6
     42,0802	  0,00516856	78,9
     42,0821	  0,00511211	74,9
     42,0841	  0,00518111	81,6
      42,086	  0,00510801	83,8
      42,088	  0,00526211	81,0
     42,0899	  0,00528831	81,0
     42,0919	   0,0051731	78,3
     42,0938	   0,0051939	77,5
     42,0958	  0,00525166	77,4
     42,0978	  0,00518751	75,8
     42,0997	  0,00523767	76,8
     42,1017	  0,00526048	82,0
     42,1036	  0,00518091	81,3
     42,1056	  0,00518464	77,9
     42,1075	  0,00524816	78,3
     42,1095	  0,00539355	79,9
     42,1114	  0,00534374	79,8
     42,1134	  0,00528635	77,1
     42,1153	  0,00524823	80,4
     42,1173	  0,00535062	76,3
     42,1193	  0,00538952	79,4
     42,1212	  0,00542856	79,1
     42,1232	  0,00532714	76,9
     42,1251	  0,00530782	75,7
     42,1271	  0,00530608	82,0
      42,129	  0,00536141	81,3
      42,131	  0,00552144	80,0
     42,1329	  0,00544645	82,0
     42,1349	  0,00543146	76,3
     42,1369	  0,00540937	75,6
     42,1388	  0,00542377	81,8
     42,1408	  0,00543522	80,5
     42,1427	  0,00546728	77,2
     42,1447	  0,00548889	79,9
     42,1466	  0,00545564	79,3
     42,1486	  0,00548657	74,0
     42,1505	  0,00553702	78,3
     42,1525	  0,00562996	82,5
     42,1544	  0,00554974	81,2
     42,1564	  0,00556986	79,5
     42,1584	  0,00556056	81,1
     42,1603	  0,00554611	78,3
     42,1623	  0,00554431	76,9
     42,1642	  0,00547515	81,6
     42,1662	  0,00556349	84,9
     42,1681	  0,00562462	76,6
     42,1701	  0,00553341	78,8
      42,172	  0,00554899	79,1
      42,174	  0,00556693	78,1
      42,176	  0,00559578	85,3
     42,1779	   0,0056369	85,0
     42,1799	  0,00572792	77,9
     42,1818	  0,00576299	78,1
     42,1838	  0,00568591	83,7
     42,1857	  0,00574546	80,0
     42,1877	  0,00575548	77,4
     42,1896	  0,00570757	85,0
     42,1916	  0,00578588	82,2
     42,1936	  0,00572484	76,9
     42,1955	   0,0057806	78,7
     42,1975	  0,00576602	80,9
     42,1994	  0,00576622	78,2
     42,2014	  0,00575134	82,2
     42,2033	  0,00570596	82,8
     42,2053	  0,00576025	84,9
     42,2072	  0,00586683	80,7
     42,2092	  0,00591485	83,8
     42,2111	  0,00599594	81,9
     42,2131	  0,00590896	79,8
     42,2151	  0,00582337	80,3
      42,217	  0,00585046	79,6
      42,219	  0,00590095	78,9
     42,2209	  0,00597819	81,7
     42,2229	  0,00588309	82,0
     42,2248	  0,00582002	78,4
     42,2268	  0,00586831	80,1
     42,2287	  0,00590128	80,5
     42,2307	  0,00596568	82,2
     42,2327	  0,00606098	79,5
     42,2346	  0,00610717	84,3
     42,2366	  0,00604367	83,7
     42,2385	  0,00597774	78,8
     42,2405	  0,00602036	80,5
     42,2424	  0,00604944	82,1
     42,2444	  0,00603296	82,7
     42,2463	  0,00605055	83,3
     42,2483	  0,00610745	82,7
     42,2502	  0,00609306	84,9
     42,2522	  0,00608407	75,5
     42,2542	  0,00609896	84,1
     42,2561	  0,00618031	83,7
     42,2581	  0,00617568	80,7
       42,26	   0,0061751	81,5
      42,262	  0,00620037	86,0
     42,2639	  0,00627143	82,5
     42,2659	  0,00623903	80,7
     42,2678	   0,0062421	85,6
     42,2698	  0,00631337	85,4
     42,2718	  0,00640369	78,4
     42,2737	  0,00639385	80,0
     42,2757	  0,00629585	84,6
     42,2776	  0,00616126	83,6
     42,2796	  0,00619254	80,5
     42,2815	  0,00627976	85,2
     42,2835	  0,00644154	84,0
     42,2854	  0,00643313	79,5
     42,2874	  0,00638823	86,9
     42,2893	  0,00634596	82,7
     42,2913	  0,00634513	81,2
     42,2933	  0,00633134	82,3
     42,2952	  0,00646047	86,3
     42,2972	  0,00645111	86,6
     42,2991	   0,0064622	79,3
     42,3011	  0,00638942	83,1
      42,303	  0,00639976	87,4
      42,305	  0,00654085	84,6
     42,3069	  0,00662722	83,6
     42,3089	  0,00662536	83,7
     42,3109	  0,00658194	82,8
     42,3128	  0,00658762	75,8
     42,3148	  0,00657726	80,9
     42,3167	  0,00649547	85,1
     42,3187	  0,00648002	83,0
     42,3206	   0,0065756	82,5
     42,3226	  0,00666159	88,3
     42,3245	  0,00671067	83,8
     42,3265	  0,00676695	83,4
     42,3284	  0,00669759	81,9
     42,3304	  0,00671864	87,1
     42,3324	  0,00675828	85,1
     42,3343	  0,00670712	80,8
     42,3363	  0,00672119	87,5
     42,3382	  0,00672915	89,2
     42,3402	   0,0067299	83,8
     42,3421	  0,00678498	83,8
     42,3441	  0,00687676	90,1
      42,346	  0,00702212	91,5
      42,348	   0,0069791	78,7
       42,35	  0,00692288	84,9
     42,3519	  0,00695873	86,4
     42,3539	  0,00700835	84,1
     42,3558	  0,00692109	81,1
     42,3578	  0,00688108	84,4
     42,3597	  0,00688427	82,8
     42,3617	   0,0068982	81,2
     42,3636	  0,00697475	85,4
     42,3656	  0,00694781	86,7
     42,3675	  0,00695532	80,8
     42,3695	  0,00698546	84,5
     42,3715	  0,00720525	89,9
     42,3734	  0,00723956	90,2
     42,3754	  0,00722924	85,3
     42,3773	  0,00714877	85,0
     42,3793	  0,00709819	85,2
     42,3812	  0,00712886	85,5
     42,3832	  0,00716668	85,2
     42,3851	  0,00727578	84,1
     42,3871	  0,00716728	88,0
     42,3891	  0,00720349	86,3
      42,391	  0,00723583	84,3
      42,393	  0,00723142	84,7
     42,3949	  0,00731426	87,8
     42,3969	  0,00734473	87,3
     42,3988	  0,00733601	84,1
     42,4008	  0,00737976	86,6
     42,4027	   0,0073595	87,0
     42,4047	  0,00743976	83,5
     42,4066	  0,00748822	88,4
     42,4086	  0,00751157	88,9
     42,4106	  0,00749175	86,7
     42,4125	  0,00744073	86,5
     42,4145	  0,00746424	84,8
     42,4164	  0,00753083	91,6
     42,4184	  0,00744292	88,0
     42,4203	  0,00747303	83,2
     42,4223	   0,0074787	90,6
     42,4242	  0,00762843	89,9
     42,4262	   0,0076266	91,2
     42,4282	  0,00765086	87,6
     42,4301	  0,00759835	90,5
     42,4321	  0,00766083	87,8
      42,434	  0,00770316	88,6
      42,436	   0,0077313	88,6
     42,4379	  0,00780478	95,5
     42,4399	  0,00780393	87,1
     42,4418	  0,00788895	87,4
     42,4438	  0,00788459	89,4
     42,4457	  0,00790051	89,1
     42,4477	  0,00796614	88,8
     42,4497	  0,00790699	86,0
     42,4516	  0,00795217	84,5
     42,4536	  0,00783709	91,9
     42,4555	  0,00791769	90,6
     42,4575	  0,00802147	85,4
     42,4594	  0,00803273	90,0
     42,4614	  0,00803949	87,5
     42,4633	  0,00801687	84,2
     42,4653	  0,00804153	89,6
     42,4673	   0,0081341	88,6
     42,4692	  0,00810136	89,6
     42,4712	  0,00806446	86,7
     42,4731	  0,00811005	87,1
     42,4751	  0,00822567	89,0
      42,477	  0,00811469	92,8
      42,479	  0,00820683	85,8
     42,4809	  0,00820104	88,1
     42,4829	  0,00836481	93,1
     42,4848	  0,00839871	92,6
     42,4868	   0,0084242	88,1
     42,4888	  0,00843067	85,8
     42,4907	  0,00850535	92,3
     42,4927	  0,00847985	94,2
     42,4946	  0,00847543	91,1
     42,4966	  0,00853664	89,6
     42,4985	  0,00846068	97,4
     42,5005	  0,00848833	94,0
     42,5024	  0,00853958	90,7
     42,5044	  0,00858684	89,6
     42,5064	  0,00858121	97,2
     42,5083	  0,00863976	96,3
     42,5103	  0,00865857	88,8
     42,5122	  0,00865785	90,9
     42,5142	  0,00860583	93,9
     42,5161	  0,00871503	96,3
     42,5181	  0,00876733	91,5
       42,52	  0,00876915	90,4
      42,522	  0,00886961	93,3
     42,5239	  0,00886165	93,6
     42,5259	  0,00893645	92,9
     42,5279	  0,00903871	88,1
     42,5298	  0,00903567	93,7
     42,5318	  0,00909098	92,6
     42,5337	   0,0090572	92,2
     42,5357	  0,00905226	91,1
     42,5376	  0,00911001	95,1
     42,5396	  0,00913142	91,4
     42,5415	  0,00914197	92,1
     42,5435	  0,00921523	89,8
     42,5455	   0,0092182	96,4
     42,5474	  0,00924034	94,4
     42,5494	  0,00918147	90,5
     42,5513	  0,00927147	91,4
     42,5533	  0,00929406	95,8
     42,5552	  0,00932526	95,9
     42,5572	  0,00933119	91,3
     42,5591	  0,00939918	91,7
     42,5611	   0,0093881	98,1
      42,563	  0,00944401	93,0
      42,565	  0,00944278	89,4
      42,567	  0,00949103	89,0
     42,5689	  0,00951918	94,2
     42,5709	  0,00956363	94,2
     42,5728	  0,00951634	92,5
     42,5748	  0,00957766	91,0
     42,5767	  0,00968634	95,6
     42,5787	  0,00969436	97,5
     42,5806	  0,00976847	92,4
     42,5826	   0,0098181	90,7
     42,5846	  0,00983706	91,7
     42,5865	  0,00983214	96,2
     42,5885	  0,00981077	93,4
     42,5904	  0,00974042	95,2
     42,5924	  0,00984113	96,2
     42,5943	  0,00992524	96,8
     42,5963	   0,0100485	98,6
     42,5982	   0,0100807	94,8
     42,6002	   0,0101322	96,6
     42,6021	   0,0101513	98,7
     42,6041	    0,010121	96,4
     42,6061	   0,0101543	94,0
      42,608	   0,0101348	93,7
       42,61	   0,0101843	99,7
     42,6119	   0,0101632	97,3
     42,6139	   0,0102291	99,9
     42,6158	   0,0102998	97,2
     42,6178	   0,0103242	96,9
     42,6197	   0,0104039	97,0
     42,6217	   0,0105024	101,0
     42,6237	   0,0105368	99,1
     42,6256	   0,0106587	98,6
     42,6276	   0,0105879	100,5
     42,6295	   0,0106838	101,6
     42,6315	   0,0106285	100,6
     42,6334	    0,010715	96,8
     42,6354	   0,0106522	99,3
     42,6373	   0,0107433	102,4
     42,6393	   0,0108163	103,6
     42,6413	   0,0109304	95,7
     42,6432	   0,0109484	96,6
     42,6452	   0,0110537	102,8
     42,6471	   0,0110518	104,8
     42,6491	   0,0110271	101,7
      42,651	   0,0111262	97,4
      42,653	   0,0111861	107,0
     42,6549	   0,0112344	103,8
     42,6569	    0,011243	102,1
     42,6588	   0,0113117	99,9
     42,6608	   0,0113957	102,2
     42,6628	   0,0113628	103,4
     42,6647	   0,0114301	104,7
     42,6667	   0,0114951	101,9
     42,6686	   0,0115029	103,5
     42,6706	   0,0114499	104,1
     42,6725	   0,0115687	106,1
     42,6745	   0,0115828	103,9
     42,6764	   0,0116488	103,1
     42,6784	   0,0116947	103,0
     42,6804	   0,0117491	107,6
     42,6823	   0,0118078	108,0
     42,6843	   0,0118401	99,5
     42,6862	    0,011812	100,6
     42,6882	   0,0118607	106,7
     42,6901	   0,0118821	107,3
     42,6921	   0,0118838	102,5
      42,694	   0,0119729	101,0
      42,696	   0,0120106	101,5
     42,6979	    0,012058	110,8
     42,6999	   0,0120391	111,0
     42,7019	   0,0122555	103,8
     42,7038	   0,0122912	102,2
     42,7058	   0,0122954	106,2
     42,7077	   0,0123189	110,6
     42,7097	    0,012409	109,1
     42,7116	   0,0124305	103,3
     42,7136	   0,0125241	105,7
     42,7155	   0,0126571	111,4
     42,7175	   0,0126846	113,0
     42,7195	   0,0126976	111,7
     42,7214	     0,01264	107,2
     42,7234	   0,0127177	107,0
     42,7253	   0,0127166	110,6
     42,7273	   0,0127882	113,9
     42,7292	   0,0128213	108,2
     42,7312	   0,0129269	110,4
     42,7331	   0,0129794	113,7
     42,7351	    0,013104	114,9
      42,737	   0,0131782	111,6
      42,739	   0,0132196	111,9
      42,741	   0,0132579	114,0
     42,7429	   0,0133193	113,2
     42,7449	   0,0133395	114,7
     42,7468	   0,0134358	113,6
     42,7488	   0,0134954	113,0
     42,7507	   0,0134628	114,1
     42,7527	   0,0135348	122,2
     42,7546	   0,0135977	119,4
     42,7566	   0,0137106	115,1
     42,7586	   0,0137785	114,4
     42,7605	   0,0138214	113,1
     42,7625	   0,0139641	120,2
     42,7644	   0,0140105	121,6
     42,7664	   0,0140315	113,6
     42,7683	   0,0140141	112,1
     42,7703	   0,0140711	119,5
     42,7722	   0,0141368	113,8
     42,7742	   0,0142354	121,4
     42,7761	    0,014319	117,0
     42,7781	   0,0143052	115,0
     42,7801	   0,0143074	125,3
      42,782	   0,0143075	123,2
      42,784	   0,0144105	118,0
     42,7859	    0,014439	117,2
     42,7879	   0,0144581	117,9
     42,7898	   0,0145474	122,2
     42,7918	    0,014603	122,0
     42,7937	   0,0146997	119,1
     42,7957	   0,0147215	120,9
     42,7977	   0,0147109	118,8
     42,7996	   0,0148267	116,7
     42,8016	   0,0147713	125,7
     42,8035	   0,0148638	115,3
     42,8055	   0,0148394	118,0
     42,8074	   0,0148926	121,9
     42,8094	    0,014954	124,4
     42,8113	   0,0150487	128,3
     42,8133	   0,0150663	130,2
     42,8153	   0,0151651	119,4
     42,8172	   0,0152215	123,8
     42,8192	    0,015267	126,7
     42,8211	   0,0152996	133,3
     42,8231	   0,0154758	124,5
      42,825	   0,0156095	125,0
      42,827	   0,0156577	124,8
     42,8289	   0,0156685	130,0
     42,8309	   0,0156552	130,6
     42,8328	   0,0156504	130,1
     42,8348	   0,0157223	128,4
     42,8368	   0,0158026	127,0
     42,8387	    0,015888	127,6
     42,8407	   0,0159178	133,2
     42,8426	   0,0159841	131,2
     42,8446	   0,0160106	128,1
     42,8465	   0,0160125	128,6
     42,8485	   0,0160239	131,5
     42,8504	   0,0161193	132,7
     42,8524	   0,0161124	131,4
     42,8544	   0,0161656	131,5
     42,8563	   0,0161661	130,3
     42,8583	   0,0161537	134,6
     42,8602	    0,016265	131,2
     42,8622	   0,0162411	137,9
     42,8641	   0,0161568	130,6
     42,8661	   0,0162233	134,6
      42,868	   0,0162822	138,5
       42,87	   0,0163825	137,2
     42,8719	   0,0164008	138,6
     42,8739	   0,0165228	139,1
     42,8759	   0,0166086	137,6
     42,8778	   0,0165875	139,0
     42,8798	   0,0166168	140,5
     42,8817	   0,0166018	142,1
     42,8837	   0,0165667	143,7
     42,8856	   0,0166272	137,4
     42,8876	   0,0166867	138,0
     42,8895	   0,0167274	135,1
     42,8915	   0,0167427	142,1
     42,8935	   0,0167492	142,9
     42,8954	   0,0168097	138,8
     42,8974	   0,0167696	141,0
     42,8993	   0,0167346	140,2
     42,9013	    0,016753	142,7
     42,9032	   0,0168181	143,6
     42,9052	   0,0168331	142,9
     42,9071	   0,0168471	147,1
     42,9091	   0,0169416	144,6
      42,911	   0,0170095	141,0
      42,913	   0,0168877	150,1
      42,915	   0,0169214	151,2
     42,9169	   0,0169333	147,6
     42,9189	   0,0170727	144,6
     42,9208	   0,0171028	146,9
     42,9228	   0,0171141	150,2
     42,9247	   0,0172199	152,3
     42,9267	   0,0171996	152,4
     42,9286	   0,0171606	147,8
     42,9306	   0,0171243	146,2
     42,9326	   0,0171354	152,6
     42,9345	   0,0171327	151,6
     42,9365	   0,0171164	151,5
     42,9384	    0,017045	149,7
     42,9404	   0,0170834	146,6
     42,9423	    0,017049	151,7
     42,9443	   0,0170704	154,1
     42,9462	   0,0170575	156,4
     42,9482	   0,0170577	154,7
     42,9501	   0,0170485	157,2
     42,9521	   0,0170394	154,4
     42,9541	   0,0170702	154,0
      42,956	   0,0171205	154,9
      42,958	   0,0171392	158,8
     42,9599	   0,0171759	160,5
     42,9619	   0,0170983	155,3
     42,9638	   0,0169952	151,1
     42,9658	   0,0170121	158,0
     42,9677	   0,0170248	156,6
     42,9697	   0,0170143	161,0
     42,9717	    0,016941	159,3
     42,9736	   0,0169331	154,0
     42,9756	    0,016876	152,5
     42,9775	   0,0168829	160,3
     42,9795	   0,0169019	163,6
     42,9814	   0,0169448	165,4
     42,9834	   0,0168517	164,7
     42,9853	   0,0167688	161,6
     42,9873	   0,0167577	161,3
     42,9892	   0,0167333	161,8
     42,9912	    0,016657	166,6
     42,9932	   0,0167073	166,8
     42,9951	   0,0167444	160,6
     42,9971	   0,0167609	163,0
      42,999	   0,0167202	161,4
      43,001	   0,0166667	165,3
     43,0029	   0,0166624	164,7
     43,0049	   0,0166494	168,9
     43,0068	   0,0166125	170,5
     43,0088	   0,0165082	161,2
     43,0108	   0,0164978	167,0
     43,0127	   0,0164519	169,0
     43,0147	   0,0164415	170,4
     43,0166	   0,0163122	171,5
     43,0186	   0,0163725	168,3
     43,0205	     0,01637	173,1
     43,0225	   0,0163635	166,8
     43,0244	   0,0163392	172,4
     43,0264	   0,0162624	169,7
     43,0283	   0,0161861	171,3
     43,0303	   0,0161179	172,0
     43,0323	    0,016102	166,8
     43,0342	   0,0160554	166,7
     43,0362	   0,0160734	171,8
     43,0381	   0,0160175	171,5
     43,0401	   0,0159212	175,5
      43,042	   0,0158676	176,6
      43,044	   0,0158327	177,5
     43,0459	   0,0158191	171,3
     43,0479	   0,0158383	172,5
     43,0499	   0,0156626	173,9
     43,0518	   0,0157212	177,7
     43,0538	    0,015718	178,8
     43,0557	   0,0156763	173,2
     43,0577	   0,0155476	174,5
     43,0596	   0,0154591	175,3
     43,0616	   0,0154093	176,2
     43,0635	   0,0154145	179,1
     43,0655	   0,0153865	181,8
     43,0674	   0,0153704	176,0
     43,0694	   0,0153362	174,3
     43,0714	   0,0153125	176,9
     43,0733	   0,0152851	179,7
     43,0753	   0,0152779	175,7
     43,0772	   0,0152084	184,8
     43,0792	   0,0151389	176,4
     43,0811	   0,0151519	177,4
     43,0831	   0,0150966	177,3
      43,085	   0,0150331	177,5
      43,087	   0,0149519	183,5
      43,089	   0,0149121	184,2
     43,0909	   0,0148419	181,6
     43,0929	    0,014693	180,3
     43,0948	   0,0148111	186,8
     43,0968	   0,0147009	183,0
     43,0987	   0,0146514	180,3
     43,1007	   0,0145707	187,1
     43,1026	   0,0145131	184,9
     43,1046	     0,01442	183,1
     43,1065	   0,0145031	182,6
     43,1085	   0,0145552	180,3
     43,1105	   0,0145154	180,1
     43,1124	   0,0144587	183,1
     43,1144	   0,0143512	186,0
     43,1163	   0,0142386	186,7
     43,1183	   0,0141922	192,2
     43,1202	   0,0142102	185,3
     43,1222	   0,0142031	185,8
     43,1241	   0,0140811	187,5
     43,1261	   0,0140515	185,0
     43,1281	   0,0139888	186,3
       43,13	   0,0139959	188,0
      43,132	   0,0139602	188,8
     43,1339	   0,0139299	183,5
     43,1359	   0,0138656	184,3
     43,1378	   0,0137779	186,8
     43,1398	    0,013704	188,1
     43,1417	   0,0136312	193,9
     43,1437	   0,0135988	194,3
     43,1456	   0,0135492	192,1
     43,1476	   0,0135121	189,3
     43,1496	   0,0134955	188,7
     43,1515	   0,0134313	189,0
     43,1535	   0,0133925	193,6
     43,1554	     0,01334	193,7
     43,1574	   0,0132644	189,7
     43,1593	   0,0131779	188,7
     43,1613	    0,013172	188,6
     43,1632	   0,0130934	190,7
     43,1652	   0,0130294	188,2
     43,1672	   0,0129915	197,4
     43,1691	   0,0129744	194,6
     43,1711	   0,0129433	194,7
      43,173	   0,0129575	192,9
      43,175	   0,0128427	190,7
     43,1769	   0,0127787	186,8
     43,1789	   0,0126839	194,4
     43,1808	   0,0126137	193,5
     43,1828	   0,0126485	195,1
     43,1847	   0,0125099	196,7
     43,1867	   0,0125836	190,0
     43,1887	   0,0125829	193,4
     43,1906	   0,0125878	190,3
     43,1926	   0,0124822	195,0
     43,1945	   0,0124777	192,1
     43,1965	   0,0123539	199,4
     43,1984	   0,0123314	195,9
     43,2004	   0,0122706	193,4
     43,2023	   0,0122254	190,6
     43,2043	   0,0120753	193,4
     43,2063	   0,0120225	193,6
     43,2082	    0,012002	-158,4
     43,2102	   0,0119706	-158,9
     43,2121	   0,0119686	-158,4
     43,2141	   0,0119775	-159,6
      43,216	   0,0118681	-163,8
      43,218	   0,0119757	-167,7
     43,2199	   0,0119279	-163,8
     43,2219	   0,0118308	-161,2
     43,2239	   0,0117428	-160,1
     43,2258	   0,0117612	-159,0
     43,2278	   0,0116972	-166,4
     43,2297	   0,0116677	-158,8
     43,2317	   0,0115213	-159,1
     43,2336	   0,0114485	-161,5
     43,2356	    0,011344	-160,0
     43,2375	   0,0113531	-161,8
     43,2395	   0,0112067	-155,7
     43,2414	   0,0111487	-160,1
     43,2434	   0,0111486	-165,5
     43,2454	   0,0111841	-161,8
     43,2473	   0,0111513	-163,3
     43,2493	   0,0111629	-157,8
     43,2512	   0,0111496	-161,6
     43,2532	   0,0111668	-153,4
     43,2551	   0,0111308	-155,3
     43,2571	   0,0110835	-156,4
      43,259	    0,011042	-158,1
      43,261	   0,0110071	-164,5
      43,263	   0,0110013	-161,3
     43,2649	    0,010839	-160,5
     43,2669	   0,0107719	-157,1
     43,2688	    0,010668	-153,5
     43,2708	    0,010642	-152,6
     43,2727	   0,0106506	-156,5
     43,2747	   0,0105746	-156,9
     43,2766	   0,0105832	-159,7
     43,2786	   0,0106062	-161,4
     43,2805	   0,0105856	-157,4
     43,2825	   0,0105489	-155,4
     43,2845	   0,0105471	-153,5
     43,2864	   0,0105232	-151,0
     43,2884	   0,0104699	-151,8
     43,2903	   0,0104541	-155,7
     43,2923	   0,0104293	-157,1
     43,2942	   0,0104316	-158,1
     43,2962	   0,0102834	-159,2
     43,2981	     0,01028	-155,6
     43,3001	   0,0101692	-154,6
     43,3021	   0,0101412	-154,7
      43,304	   0,0101455	-152,3
      43,306	   0,0100753	-153,1
     43,3079	   0,0100015	-156,0
     43,3099	   0,0100468	-156,7
     43,3118	  0,00993972	-155,2
     43,3138	  0,00985394	-158,4
     43,3157	  0,00992501	-153,3
     43,3177	  0,00995738	-154,3
     43,3196	   0,0098593	-149,7
     43,3216	  0,00976693	-148,9
     43,3236	  0,00979755	-152,6
     43,3255	   0,0098061	-154,8
     43,3275	  0,00975994	-152,4
     43,3294	  0,00971788	-157,2
     43,3314	  0,00961339	-147,4
     43,3333	   0,0095286	-151,0
     43,3353	  0,00947123	-148,8
     43,3372	  0,00938095	-150,1
     43,3392	  0,00934687	-154,7
     43,3412	  0,00936311	-151,4
     43,3431	  0,00928208	-153,0
     43,3451	  0,00934049	-153,8
      43,347	  0,00932543	-149,2
      43,349	  0,00927847	-151,9
     43,3509	  0,00928871	-150,6
     43,3529	  0,00918779	-150,8
     43,3548	  0,00916903	-147,8
     43,3568	  0,00915893	-149,6
     43,3587	  0,00909812	-150,8
     43,3607	  0,00903021	-151,4
     43,3627	   0,0090012	-151,3
     43,3646	  0,00902162	-151,1
     43,3666	  0,00900977	-155,9
     43,3685	  0,00896102	-148,5
     43,3705	  0,00888292	-147,9
     43,3724	  0,00889815	-150,0
     43,3744	  0,00888737	-146,2
     43,3763	  0,00883887	-153,7
     43,3783	  0,00886216	-152,9
     43,3803	  0,00883112	-151,1
     43,3822	  0,00883013	-149,8
     43,3842	  0,00877401	-147,6
     43,3861	  0,00875662	-146,1
     43,3881	  0,00872291	-144,3
       43,39	  0,00865918	-148,2
      43,392	  0,00863375	-146,9
     43,3939	  0,00864049	-149,8
     43,3959	  0,00856986	-153,4
     43,3979	  0,00854309	-154,1
     43,3998	   0,0084655	-148,5
     43,4018	  0,00852985	-149,9
     43,4037	  0,00842651	-147,1
     43,4057	  0,00833836	-143,7
     43,4076	  0,00836463	-144,0
     43,4096	  0,00837397	-147,0
     43,4115	  0,00841378	-151,4
     43,4135	  0,00837635	-150,8
     43,4154	  0,00837121	-151,1
     43,4174	  0,00826585	-151,4
     43,4194	   0,0082109	-148,0
     43,4213	  0,00819785	-144,5
     43,4233	  0,00815197	-149,6
     43,4252	  0,00814061	-144,0
     43,4272	   0,0080822	-144,8
     43,4291	  0,00802511	-147,4
     43,4311	  0,00794068	-145,5
      43,433	   0,0079981	-146,5
      43,435	  0,00794297	-146,1
      43,437	  0,00789163	-146,5
     43,4389	  0,00798597	-151,0
     43,4409	  0,00794755	-143,4
     43,4428	  0,00791963	-144,4
     43,4448	  0,00785587	-142,0
     43,4467	  0,00776392	-142,1
     43,4487	  0,00772177	-144,6
     43,4506	   0,0077774	-143,9
     43,4526	  0,00780067	-149,0
     43,4545	  0,00783265	-148,2
     43,4565	  0,00767908	-149,4
     43,4585	  0,00766299	-147,7
     43,4604	  0,00759264	-148,5
     43,4624	  0,00765508	-147,0
     43,4643	    0,007641	-145,9
     43,4663	  0,00761661	-141,5
     43,4682	  0,00757762	-143,9
     43,4702	   0,0075398	-147,1
     43,4721	  0,00747176	-143,4
     43,4741	  0,00744949	-148,6
     43,4761	  0,00746568	-143,9
      43,478	  0,00737993	-145,9
       43,48	   0,0073715	-147,0
     43,4819	  0,00732918	-143,2
     43,4839	  0,00739848	-147,8
     43,4858	  0,00740491	-145,3
     43,4878	  0,00731708	-140,0
     43,4897	  0,00728868	-139,2
     43,4917	  0,00729979	-141,7
     43,4936	  0,00737811	-141,7
     43,4956	   0,0074164	-142,9
     43,4976	  0,00738095	-145,5
     43,4995	  0,00724564	-149,3
     43,5015	   0,0071294	-145,6
     43,5034	   0,0071576	-141,8
     43,5054	   0,0071519	-149,4
     43,5073	  0,00697799	-144,1
     43,5093	  0,00698822	-143,3
     43,5112	  0,00701764	-141,3
     43,5132	  0,00700704	-138,5
     43,5152	  0,00701519	-140,2
     43,5171	  0,00705897	-138,8
     43,5191	  0,00700354	-141,7
      43,521	  0,00694687	-142,7
      43,523	  0,00695658	-149,6
     43,5249	   0,0069795	-147,7
     43,5269	  0,00693386	-145,5
     43,5288	  0,00689925	-143,6
     43,5308	  0,00682871	-137,9
     43,5327	  0,00677194	-141,3
     43,5347	  0,00679894	-139,2
     43,5367	  0,00679589	-143,7
     43,5386	  0,00676709	-137,0
     43,5406	  0,00670764	-138,2
     43,5425	  0,00671635	-144,4
     43,5445	  0,00666463	-145,5
     43,5464	  0,00674265	-142,9
     43,5484	  0,00673317	-147,5
     43,5503	  0,00667009	-145,8
     43,5523	  0,00667195	-144,7
     43,5543	  0,00666224	-141,3
     43,5562	  0,00662097	-136,4
     43,5582	  0,00665101	-143,6
     43,5601	  0,00664994	-138,2
     43,5621	  0,00662496	-141,6
      43,564	  0,00655561	-141,7
      43,566	  0,00649084	-135,4
     43,5679	  0,00641725	-139,7
     43,5699	    0,006415	-139,2
     43,5718	  0,00641339	-144,9
     43,5738	  0,00645597	-147,6
     43,5758	  0,00645048	-143,8
     43,5777	  0,00641039	-143,1
     43,5797	  0,00647995	-139,4
     43,5816	  0,00641321	-143,3
     43,5836	  0,00631374	-139,5
     43,5855	  0,00625071	-141,5
     43,5875	  0,00626839	-140,2
     43,5894	   0,0062572	-137,9
     43,5914	   0,0062713	-137,3
     43,5934	  0,00627433	-129,9
     43,5953	  0,00611215	-137,3
     43,5973	  0,00619351	-141,2
     43,5992	  0,00614917	-144,3
     43,6012	  0,00607007	-140,7
     43,6031	  0,00608125	-141,6
     43,6051	  0,00618253	-141,4
      43,607	  0,00609628	-139,2
      43,609	   0,0060938	-140,8
     43,6109	  0,00607468	-140,7
     43,6129	  0,00609018	-137,8
     43,6149	  0,00602535	-136,4
     43,6168	  0,00605528	-139,8
     43,6188	  0,00610644	-137,2
     43,6207	  0,00610636	-135,9
     43,6227	  0,00600203	-139,6
     43,6246	  0,00596238	-137,3
     43,6266	  0,00591805	-141,6
     43,6285	  0,00587847	-137,8
     43,6305	  0,00587613	-141,6
     43,6325	   0,0059312	-140,7
     43,6344	   0,0058487	-144,0
     43,6364	  0,00591837	-142,7
     43,6383	  0,00584533	-137,5
     43,6403	  0,00574019	-138,8
     43,6422	  0,00571323	-133,9
     43,6442	  0,00576283	-140,9
     43,6461	  0,00580047	-141,4
     43,6481	  0,00576092	-136,7
       43,65	  0,00569455	-136,7
      43,652	  0,00571248	-131,9
      43,654	  0,00561127	-137,1
     43,6559	  0,00567813	-138,2
     43,6579	   0,0056991	-136,5
     43,6598	  0,00573696	-141,0
     43,6618	  0,00567528	-137,4
     43,6637	  0,00561943	-139,5
     43,6657	   0,0056174	-141,3
     43,6676	  0,00559057	-146,1
     43,6696	  0,00558421	-141,2
     43,6716	    0,005645	-139,1
     43,6735	  0,00556759	-140,3
     43,6755	  0,00549991	-137,3
     43,6774	   0,0055332	-141,1
     43,6794	  0,00555481	-134,5
     43,6813	  0,00542161	-136,0
     43,6833	  0,00543049	-133,5
     43,6852	  0,00544172	-132,7
     43,6872	  0,00548192	-134,6
     43,6891	  0,00546982	-135,8
     43,6911	  0,00548375	-140,0
     43,6931	  0,00543345	-135,1
      43,695	  0,00543795	-136,8
      43,697	  0,00539122	-138,2
     43,6989	  0,00535896	-142,7
     43,7009	  0,00546042	-141,3
     43,7028	  0,00542593	-141,8
     43,7048	  0,00533297	-141,6
     43,7067	  0,00526881	-136,6
     43,7087	  0,00537959	-137,1
     43,7107	  0,00534859	-133,2
     43,7126	  0,00542439	-135,1
     43,7146	  0,00538682	-133,1
     43,7165	  0,00522575	-132,2
     43,7185	  0,00518363	-138,1
     43,7204	  0,00525903	-137,9
     43,7224	  0,00531647	-137,7
     43,7243	  0,00532616	-134,7
     43,7263	    0,005222	-138,3
     43,7282	  0,00513736	-133,7
     43,7302	  0,00506528	-141,0
     43,7322	  0,00510032	-142,2
     43,7341	  0,00521581	-141,8
     43,7361	    0,005298	-144,5
      43,738	   0,0051011	-139,7
       43,74	  0,00502264	-136,6
     43,7419	  0,00494267	-136,8
     43,7439	  0,00496511	-142,6
     43,7458	  0,00498671	-141,3
     43,7478	  0,00505228	-139,1
     43,7498	  0,00504269	-135,4
     43,7517	  0,00508599	-133,0
     43,7537	  0,00509076	-134,0
     43,7556	  0,00504771	-133,4
     43,7576	  0,00504783	-133,8
     43,7595	  0,00494664	-129,4
     43,7615	  0,00493779	-133,5
     43,7634	  0,00492923	-131,4
     43,7654	  0,00487424	-135,0
     43,7673	  0,00494522	-135,2
     43,7693	   0,0049844	-138,9
     43,7713	  0,00494451	-134,8
     43,7732	  0,00485422	-134,2
     43,7752	   0,0048412	-137,1
     43,7771	  0,00482484	-140,7
     43,7791	  0,00480653	-143,3
      43,781	  0,00483255	-136,6
      43,783	   0,0047938	-141,9
     43,7849	  0,00490977	-140,9
     43,7869	  0,00486214	-141,1
     43,7889	  0,00478586	-141,8
     43,7908	  0,00470141	-135,6
     43,7928	  0,00470598	-132,6
     43,7947	  0,00482195	-134,1
     43,7967	   0,0048291	-140,3
     43,7986	   0,0048747	-134,8
     43,8006	  0,00472193	-129,7
     43,8025	  0,00470186	-126,4
     43,8045	  0,00465628	-133,0
     43,8064	  0,00464978	-133,9
     43,8084	  0,00471566	-131,1
     43,8104	  0,00470543	-132,9
     43,8123	  0,00460376	-133,7
     43,8143	  0,00462369	-136,8
     43,8162	  0,00461187	-133,5
     43,8182	  0,00460029	-131,8
     43,8201	  0,00462261	-136,6
     43,8221	  0,00461148	-131,5
      43,824	  0,00458672	-134,9
      43,826	  0,00462117	-135,5
      43,828	  0,00456163	-138,0
     43,8299	  0,00450864	-136,7
     43,8319	  0,00453692	-135,6
     43,8338	  0,00452149	-138,4
     43,8358	  0,00462639	-133,9
     43,8377	  0,00460336	-141,2
     43,8397	  0,00456834	-136,5
     43,8416	  0,00459159	-134,9
     43,8436	  0,00443685	-132,8
     43,8456	  0,00442545	-136,1
     43,8475	  0,00450485	-134,3
     43,8495	  0,00452608	-135,9
     43,8514	  0,00449241	-133,2
     43,8534	    0,004491	-127,7
     43,8553	  0,00444824	-133,7
     43,8573	  0,00446261	-132,3
     43,8592	  0,00437463	-133,1
     43,8612	  0,00443661	-130,1
     43,8631	  0,00448304	-129,1
     43,8651	  0,00439356	-128,4
     43,8671	  0,00431945	-131,5
      43,869	  0,00430016	-130,3
      43,871	  0,00423872	-122,1
     43,8729	  0,00428509	-129,1
     43,8749	  0,00433856	-132,2
     43,8768	  0,00431514	-133,0
     43,8788	  0,00426984	-130,4
     43,8807	  0,00428117	-131,2
     43,8827	  0,00427583	-129,7
     43,8847	  0,00427199	-138,3
     43,8866	  0,00435779	-137,2
     43,8886	  0,00436694	-137,9
     43,8905	  0,00429693	-129,8
     43,8925	  0,00435278	-132,8
     43,8944	  0,00435224	-133,0
     43,8964	  0,00414018	-137,7
     43,8983	   0,0041096	-135,7
     43,9003	  0,00415379	-134,3
     43,9022	  0,00420409	-136,0
     43,9042	  0,00423838	-134,4
     43,9062	  0,00426276	-138,9
     43,9081	  0,00414376	-130,6
     43,9101	  0,00406282	-134,7
      43,912	  0,00419892	-134,3
      43,914	    0,004282	-138,9
     43,9159	  0,00420198	-134,9
     43,9179	  0,00410699	-134,2
     43,9198	  0,00411725	-131,1
     43,9218	  0,00411078	-134,4
     43,9238	  0,00417651	-131,5
     43,9257	  0,00407511	-134,0
     43,9277	  0,00407537	-131,8
     43,9296	    0,004155	-132,4
     43,9316	  0,00417066	-130,8
     43,9335	  0,00401357	-130,6
     43,9355	   0,0039366	-130,7
     43,9374	  0,00391658	-131,8
     43,9394	  0,00408137	-132,4
     43,9413	  0,00417387	-132,6
     43,9433	  0,00408677	-131,1
     43,9453	  0,00401336	-125,6
     43,9472	   0,0039948	-127,5
     43,9492	  0,00398019	-131,8
     43,9511	  0,00400163	-133,6
     43,9531	  0,00399625	-127,8
      43,955	   0,0039101	-128,4
      43,957	  0,00398827	-130,7
     43,9589	  0,00399881	-132,4
     43,9609	  0,00401282	-128,5
     43,9629	   0,0039855	-126,3
     43,9648	  0,00388411	-130,9
     43,9668	  0,00393267	-130,2
     43,9687	  0,00396361	-130,9
     43,9707	  0,00395416	-132,8
     43,9726	  0,00383371	-122,9
     43,9746	  0,00378377	-130,8
     43,9765	  0,00390411	-133,3
     43,9785	  0,00392918	-127,8
     43,9804	  0,00391759	-132,1
     43,9824	  0,00384105	-128,6
     43,9844	  0,00387168	-131,2
     43,9863	  0,00385565	-128,5
     43,9883	  0,00385191	-131,2
     43,9902	  0,00374135	-129,6
     43,9922	  0,00371197	-129,1
     43,9941	  0,00381469	-134,4
     43,9961	  0,00386598	-135,9
      43,998	  0,00371514	-130,3
          44	  0,00372768	-133,6

