X-Data [Hz]	Piezo (M - Filtered) [mV]	Phase [Deg]	Piezo (M - Filtered) [mV]	Phase [Deg]	
	002: [07-09-24 15:39]		003: [07-09-24 15:42]	
        41,5	     14,6748	-102,1	     15,1062	-107,1
      41,502	      14,758	-106,6	     15,3501	-104,8
     41,5039	     14,7718	-104,9	     15,3856	-105,0
     41,5059	     15,0385	-105,4	      15,373	-103,9
     41,5078	     15,2349	-104,1	     15,3978	-105,8
     41,5098	     15,2777	-106,7	      15,435	-104,8
     41,5117	     15,1902	-106,2	     15,5218	-105,2
     41,5137	     15,2927	-104,0	     15,4858	-106,1
     41,5156	     15,4167	-104,9	     15,5354	-103,9
     41,5176	      15,501	-103,4	     15,6218	-104,7
     41,5196	      15,404	-107,2	      15,607	-103,8
     41,5215	      15,462	-107,1	     15,6599	-106,6
     41,5235	     15,5328	-105,5	     15,6966	-107,4
     41,5254	     15,6048	-105,9	     15,6955	-106,3
     41,5274	     15,7153	-102,3	     15,7429	-106,6
     41,5293	     15,7108	-105,4	     15,8104	-103,9
     41,5313	     15,5114	-104,6	     15,8036	-105,4
     41,5332	     15,4875	-105,5	     15,8125	-104,6
     41,5352	     15,6046	-104,3	     15,7377	-104,3
     41,5371	     15,7667	-103,2	     15,7947	-104,8
     41,5391	     15,7757	-105,4	     15,8753	-103,7
     41,5411	     15,7532	-103,8	     15,9847	-105,3
      41,543	     15,7465	-105,8	     15,9032	-102,8
      41,545	       15,83	-105,9	     15,7696	-107,4
     41,5469	      15,895	-104,8	     15,8654	-107,8
     41,5489	      15,984	-105,8	       15,97	-103,8
     41,5508	     15,9806	-104,2	     16,0596	-104,2
     41,5528	     15,8722	-105,4	     16,1602	-102,1
     41,5547	      15,844	-105,8	     16,0685	-103,6
     41,5567	     16,1034	-105,8	     16,0696	-104,5
     41,5587	     16,0807	-107,0	     16,2286	-105,0
     41,5606	     16,2034	-103,4	     16,3837	-103,8
     41,5626	     16,1001	-104,8	     16,1986	-101,6
     41,5645	     16,0946	-103,5	     16,1787	-105,4
     41,5665	     16,0843	-105,7	     16,2277	-105,4
     41,5684	     16,1351	-106,0	     16,2233	-103,9
     41,5704	     16,2032	-103,4	     16,2505	-106,2
     41,5723	     16,2082	-104,6	     16,3211	-104,4
     41,5743	      16,111	-102,4	     16,4433	-105,7
     41,5762	     16,1805	-102,1	     16,5163	-104,2
     41,5782	     16,3361	-106,7	     16,5439	-104,9
     41,5802	     16,4294	-104,0	     16,5503	-105,7
     41,5821	     16,4564	-104,6	     16,5385	-103,0
     41,5841	     16,3047	-106,2	     16,5067	-103,5
      41,586	     16,4468	-104,5	     16,4727	-103,3
      41,588	     16,4449	-105,8	     16,6666	-102,8
     41,5899	      16,544	-103,7	     16,8138	-105,9
     41,5919	     16,5603	-105,7	     16,7956	-104,4
     41,5938	     16,4558	-103,1	     16,6542	-104,2
     41,5958	     16,5416	-102,3	      16,787	-104,2
     41,5978	     16,6349	-104,2	     16,8825	-104,7
     41,5997	     16,6407	-102,5	     16,8435	-104,5
     41,6017	     16,7765	-105,8	     16,8305	-104,0
     41,6036	     16,7799	-105,1	     16,8839	-106,3
     41,6056	     16,7668	-104,4	     16,9564	-106,3
     41,6075	     16,7128	-101,9	     16,9807	-103,8
     41,6095	     16,7237	-102,3	     17,0127	-103,8
     41,6114	     16,9202	-103,7	     17,0179	-102,3
     41,6134	     16,8491	-102,8	      17,153	-103,3
     41,6153	     16,8739	-102,0	      16,994	-102,8
     41,6173	     17,0137	-102,3	     17,0102	-103,8
     41,6193	     17,0248	-103,1	     17,2017	-103,8
     41,6212	     17,0485	-104,6	      17,353	-101,5
     41,6232	     17,0144	-104,4	     17,3512	-104,6
     41,6251	     17,0992	-104,3	     17,3092	-104,2
     41,6271	     17,1076	-105,3	     17,2889	-105,1
      41,629	     17,1528	-102,1	     17,3595	-105,3
      41,631	     17,1668	-103,4	     17,3613	-101,7
     41,6329	     17,1376	-102,6	     17,3151	-102,2
     41,6349	     17,1904	-103,9	     17,3048	-103,9
     41,6369	     17,2349	-105,0	     17,4651	-102,7
     41,6388	     17,1863	-102,8	     17,5175	-104,0
     41,6408	     17,3879	-104,2	     17,5865	-102,9
     41,6427	     17,3629	-104,3	     17,5679	-102,4
     41,6447	     17,4348	-103,8	     17,6381	-102,7
     41,6466	     17,4028	-104,5	     17,7007	-101,6
     41,6486	     17,3775	-103,7	     17,7265	-104,4
     41,6505	     17,5577	-103,5	     17,7562	-103,9
     41,6525	     17,7039	-101,2	     17,7316	-104,8
     41,6544	     17,7211	-102,1	     17,7849	-104,8
     41,6564	     17,4904	-104,4	     17,7269	-102,3
     41,6584	     17,4362	-101,5	     17,9367	-102,7
     41,6603	     17,6099	-100,7	     17,9662	-101,9
     41,6623	     17,8157	-103,8	     17,8354	-102,1
     41,6642	     17,7611	-102,7	     17,9279	-104,5
     41,6662	     17,8214	-102,9	     18,0291	-102,2
     41,6681	     17,7448	-103,4	     17,9928	-104,7
     41,6701	     17,8763	-102,4	      18,022	-102,9
      41,672	     17,9767	-102,8	     18,2002	-104,3
      41,674	     18,0974	-102,5	     18,2699	-104,1
      41,676	     18,1215	-104,2	     18,3477	-103,0
     41,6779	     17,9833	-102,4	       18,28	-103,1
     41,6799	     18,0132	-101,8	      18,259	-104,4
     41,6818	     17,9812	-102,6	     18,3761	-101,0
     41,6838	     18,0198	-101,5	     18,3548	-102,4
     41,6857	     18,2553	-104,0	     18,4239	-102,0
     41,6877	     18,2909	-103,6	     18,4904	-101,4
     41,6896	     18,4129	-101,9	     18,4138	-104,0
     41,6916	     18,4185	-103,7	     18,5222	-101,7
     41,6936	     18,1877	-101,6	     18,6897	-102,7
     41,6955	     18,1388	-100,7	     18,6348	-102,1
     41,6975	     18,3941	-102,9	     18,5539	-101,6
     41,6994	        18,7	-101,5	     18,6471	-103,0
     41,7014	     18,5633	-105,2	     18,7529	-100,9
     41,7033	     18,5835	-103,7	     18,6985	-102,1
     41,7053	     18,6074	-102,3	      18,766	-101,6
     41,7072	     18,6774	-102,2	     18,8084	-100,9
     41,7092	     18,6161	-101,0	     18,8171	-102,0
     41,7111	     18,6523	-102,3	     18,9631	-101,2
     41,7131	     18,7971	-102,6	     19,0346	-101,1
     41,7151	     18,8262	-101,9	     19,2424	-103,0
      41,717	     18,8507	-102,4	     19,1007	-102,9
      41,719	     18,8403	-103,5	     19,1181	-102,5
     41,7209	     18,8794	-101,9	     19,0664	-104,4
     41,7229	      18,953	-101,3	     19,2679	-102,0
     41,7248	     19,0347	-100,3	     19,3879	-101,0
     41,7268	     19,0168	-101,7	     19,3985	-101,8
     41,7287	     19,0288	-102,5	     19,3067	-101,5
     41,7307	     19,1493	-101,8	      19,223	-103,2
     41,7327	     19,2511	-102,2	     19,3014	-100,8
     41,7346	     19,2545	-101,6	     19,3334	-102,5
     41,7366	     19,2115	-102,3	     19,4923	-102,8
     41,7385	     19,3177	-103,8	     19,5544	-101,7
     41,7405	     19,4612	-101,5	     19,6623	-102,3
     41,7424	      19,476	-101,9	     19,5523	-101,7
     41,7444	     19,3907	-100,7	     19,6581	-101,8
     41,7463	     19,3354	-100,2	     19,6663	-100,9
     41,7483	     19,4604	-102,1	     19,7413	-100,6
     41,7502	     19,5249	-101,5	     19,8383	-100,1
     41,7522	     19,7604	-102,6	     19,9147	-101,0
     41,7542	     19,6556	-104,1	     19,8521	-99,6
     41,7561	     19,7717	-100,3	     19,9784	-102,8
     41,7581	     19,7084	-101,4	     20,0893	-101,6
       41,76	     19,6101	-100,2	     20,1351	-102,1
      41,762	     19,7558	-98,7	     20,1352	-103,6
     41,7639	     20,0746	-102,3	     20,0588	-97,8
     41,7659	     20,0839	-102,1	     19,9953	-99,4
     41,7678	     20,1032	-100,9	     20,2004	-101,2
     41,7698	     20,0504	-102,4	     20,2968	-100,0
     41,7718	     20,0106	-100,7	     20,3644	-102,8
     41,7737	     20,0375	-100,6	     20,3626	-101,9
     41,7757	     20,1003	-101,4	     20,3452	-100,6
     41,7776	     20,2143	-100,9	     20,4362	-101,6
     41,7796	     20,3034	-101,2	     20,4312	-98,9
     41,7815	     20,3794	-100,3	     20,5126	-100,4
     41,7835	     20,3401	-100,6	     20,5919	-102,7
     41,7854	     20,3721	-101,2	     20,7321	-100,6
     41,7874	     20,3236	-99,0	     20,7213	-102,3
     41,7893	     20,4564	-101,0	     20,9364	-103,0
     41,7913	     20,5281	-101,8	      20,855	-99,3
     41,7933	     20,5869	-100,1	     20,8056	-100,1
     41,7952	     20,6034	-102,9	     20,8753	-99,7
     41,7972	      20,566	-102,3	     20,8838	-100,0
     41,7991	      20,582	-99,2	     21,0217	-102,1
     41,8011	     20,7474	-99,9	     21,0823	-100,3
      41,803	     20,8271	-99,0	     21,1901	-101,8
      41,805	     21,0105	-100,8	     21,2425	-101,3
     41,8069	     20,9574	-102,0	     21,2492	-99,1
     41,8089	     20,9008	-99,3	     21,3045	-101,7
     41,8109	     20,9572	-101,2	     21,3759	-99,9
     41,8128	     20,8676	-100,8	     21,3984	-99,9
     41,8148	     21,0385	-98,7	     21,3763	-100,9
     41,8167	     21,2444	-99,8	     21,5108	-98,5
     41,8187	     21,1595	-99,8	     21,5017	-100,0
     41,8206	     21,1895	-99,8	     21,6218	-100,8
     41,8226	     21,4249	-100,8	     21,7802	-98,6
     41,8245	     21,4632	-99,5	     21,8901	-101,0
     41,8265	     21,5023	-100,4	     21,8294	-100,7
     41,8284	     21,5208	-99,0	     21,8858	-100,1
     41,8304	     21,5557	-98,4	     21,9539	-100,8
     41,8324	     21,5701	-101,0	     21,9316	-99,8
     41,8343	     21,4804	-101,0	     21,9636	-99,1
     41,8363	     21,6221	-100,2	     22,2407	-98,7
     41,8382	     21,7933	-100,2	     22,2004	-98,1
     41,8402	     22,0095	-98,8	     22,2209	-99,9
     41,8421	     22,0917	-99,0	     22,1881	-100,0
     41,8441	      22,013	-101,3	     22,2027	-99,6
      41,846	     21,8632	-98,2	     22,4507	-101,1
      41,848	     21,8266	-97,9	     22,6085	-99,9
       41,85	     22,0101	-99,9	     22,6716	-97,9
     41,8519	     22,2844	-98,9	     22,7294	-99,4
     41,8539	     22,3851	-100,3	      22,727	-99,2
     41,8558	     22,3835	-99,1	     22,7187	-98,0
     41,8578	      22,408	-97,9	     22,7144	-100,5
     41,8597	     22,4106	-99,3	     22,7574	-98,7
     41,8617	     22,4787	-99,1	     22,8309	-99,9
     41,8636	     22,5343	-98,4	     22,9296	-99,7
     41,8656	     22,6243	-99,2	      22,937	-97,1
     41,8675	     22,5607	-99,0	     22,9459	-97,8
     41,8695	     22,7779	-98,2	     23,0238	-99,7
     41,8715	     22,8836	-99,1	     23,1357	-97,1
     41,8734	     22,8298	-99,1	     23,3005	-99,9
     41,8754	      22,868	-100,1	     23,4127	-99,3
     41,8773	     22,9269	-99,8	     23,3745	-98,0
     41,8793	     22,8886	-97,9	     23,3907	-99,2
     41,8812	     22,9412	-98,7	     23,4578	-96,7
     41,8832	     23,1784	-99,4	     23,5118	-97,7
     41,8851	     23,1677	-98,4	     23,6908	-98,8
     41,8871	     23,2852	-99,3	     23,6563	-97,4
     41,8891	     23,2675	-99,3	     23,6707	-98,5
      41,891	     23,3873	-97,6	     23,7303	-99,0
      41,893	     23,5354	-96,5	     23,8865	-97,8
     41,8949	     23,5669	-96,3	       23,93	-97,6
     41,8969	     23,6333	-95,6	     23,9893	-98,1
     41,8988	     23,7275	-100,5	     23,9979	-96,7
     41,9008	     23,7692	-98,9	     24,0494	-98,0
     41,9027	     23,8816	-98,9	     24,2815	-97,2
     41,9047	       23,99	-100,0	     24,2736	-97,1
     41,9066	     23,9024	-96,1	     24,2581	-97,9
     41,9086	     23,9372	-97,0	     24,4088	-98,2
     41,9106	     23,8858	-97,7	     24,4914	-97,8
     41,9125	     24,0186	-95,8	     24,5945	-98,3
     41,9145	     24,2214	-99,1	     24,6785	-99,4
     41,9164	     24,2574	-99,4	     24,8967	-96,3
     41,9184	     24,2841	-97,8	     24,9607	-96,0
     41,9203	     24,3952	-97,4	     24,8984	-95,5
     41,9223	     24,3806	-96,6	     24,9776	-95,8
     41,9242	     24,4011	-94,9	     25,0046	-97,4
     41,9262	     24,5869	-97,6	     25,1937	-97,0
     41,9282	     24,5539	-95,8	     25,2106	-96,4
     41,9301	     24,7318	-98,7	     25,2465	-98,0
     41,9321	     24,8439	-98,4	     25,2247	-97,9
      41,934	     24,7926	-97,4	      25,266	-96,1
      41,936	     24,9057	-96,3	      25,389	-96,5
     41,9379	       25,09	-96,5	     25,5484	-94,4
     41,9399	     25,1332	-96,5	     25,7324	-98,3
     41,9418	     25,2295	-97,7	     25,8552	-97,6
     41,9438	     25,1638	-97,3	     25,8085	-96,0
     41,9457	     25,1522	-95,9	     25,9638	-96,2
     41,9477	     25,2876	-97,1	     26,0568	-97,0
     41,9497	     25,3012	-98,0	     26,1444	-96,6
     41,9516	      25,614	-95,5	     26,1842	-96,6
     41,9536	     25,7055	-95,5	     26,2849	-96,7
     41,9555	     25,8611	-96,8	     26,3497	-93,9
     41,9575	     25,7066	-95,0	      26,355	-95,1
     41,9594	      25,771	-95,2	     26,4695	-97,1
     41,9614	     25,7802	-95,7	     26,6109	-94,8
     41,9633	     25,9121	-93,4	     26,5937	-97,6
     41,9653	     26,1259	-96,6	     26,8244	-97,1
     41,9673	     26,1187	-97,2	     26,8793	-93,8
     41,9692	     26,2384	-94,0	     26,8197	-94,1
     41,9712	     26,3521	-96,0	     26,9145	-95,0
     41,9731	     26,4576	-97,1	     27,0506	-94,4
     41,9751	     26,5366	-94,1	      27,198	-95,4
      41,977	       26,77	-94,0	     27,2959	-96,0
      41,979	      26,791	-94,7	      27,454	-94,2
     41,9809	     26,9244	-93,1	     27,6079	-94,6
     41,9829	     26,9841	-96,0	     27,6392	-95,4
     41,9848	     27,0997	-95,7	     27,6119	-94,3
     41,9868	      27,111	-94,9	     27,6769	-95,4
     41,9888	     27,2144	-95,8	     27,7515	-95,0
     41,9907	     27,3015	-97,3	     27,7957	-93,1
     41,9927	     27,4254	-92,8	     27,9745	-93,5
     41,9946	     27,4975	-94,8	     28,1236	-93,9
     41,9966	     27,4394	-93,4	     28,1579	-93,8
     41,9985	     27,5267	-92,2	       28,26	-93,4
     42,0005	     27,6019	-95,3	     28,3743	-95,8
     42,0024	     27,6372	-95,2	     28,5008	-94,3
     42,0044	      27,761	-93,9	     28,6623	-94,6
     42,0064	     27,9263	-95,7	      28,719	-95,5
     42,0083	     28,1484	-92,7	     28,6904	-91,7
     42,0103	     28,2759	-93,0	     28,7278	-93,2
     42,0122	     28,2975	-94,0	     28,7944	-94,5
     42,0142	      28,279	-93,3	     28,9599	-92,9
     42,0161	      28,328	-93,1	     29,1191	-92,5
     42,0181	     28,4884	-94,0	     29,1433	-94,0
       42,02	     28,4862	-93,8	     29,3557	-92,6
      42,022	      28,616	-93,6	     29,5308	-92,6
     42,0239	     28,6986	-94,0	     29,5561	-95,1
     42,0259	     28,6965	-94,0	     29,7445	-93,2
     42,0279	     28,7923	-92,7	     29,8057	-93,2
     42,0298	     28,9209	-93,7	     29,9044	-94,0
     42,0318	     29,1146	-94,2	     30,0301	-90,6
     42,0337	     29,2164	-90,7	     30,1305	-90,5
     42,0357	     29,4116	-90,8	     30,3172	-92,4
     42,0376	       29,47	-93,1	     30,4286	-91,1
     42,0396	     29,5821	-92,2	     30,5812	-92,9
     42,0415	     29,5864	-93,1	     30,5551	-93,4
     42,0435	     29,5335	-93,1	     30,7172	-91,1
     42,0455	     29,6909	-91,9	     30,8556	-91,5
     42,0474	     29,7896	-92,0	     30,8491	-92,2
     42,0494	     29,9217	-92,0	     30,9931	-90,4
     42,0513	     30,1062	-91,0	     31,0887	-91,8
     42,0533	     30,3686	-91,5	     31,2447	-92,3
     42,0552	     30,4429	-93,0	     31,4164	-91,7
     42,0572	     30,6205	-90,0	     31,6451	-89,9
     42,0591	     30,6816	-89,4	     31,7527	-90,3
     42,0611	     30,8489	-90,9	     31,8481	-91,3
      42,063	     30,8754	-90,9	     31,8814	-90,1
      42,065	     31,0085	-93,1	     31,9977	-92,2
      42,067	     30,9782	-92,9	     32,0901	-92,2
     42,0689	     30,9505	-91,3	     32,1519	-89,9
     42,0709	     31,0462	-91,4	     32,3214	-90,2
     42,0728	     31,3742	-92,4	     32,4499	-89,3
     42,0748	     31,4786	-88,6	     32,5657	-89,5
     42,0767	     31,5143	-89,6	     32,7045	-88,7
     42,0787	     31,6947	-89,1	     32,9341	-89,0
     42,0806	     31,8351	-89,8	     33,0458	-90,0
     42,0826	      32,043	-91,1	     33,2579	-90,9
     42,0846	     32,1246	-90,4	     33,4143	-90,8
     42,0865	     32,2074	-88,3	     33,5147	-88,7
     42,0885	     32,2972	-90,7	      33,586	-88,3
     42,0904	     32,4518	-91,4	     33,7378	-90,2
     42,0924	     32,5617	-88,7	     33,7176	-90,0
     42,0943	     32,7085	-88,9	     33,8893	-87,7
     42,0963	     32,9281	-89,8	     34,0522	-89,1
     42,0982	     33,0683	-89,2	      34,241	-86,9
     42,1002	     33,0825	-87,6	      34,365	-87,5
     42,1021	     33,2103	-90,0	     34,5727	-88,6
     42,1041	     33,3198	-88,1	     34,7397	-88,8
     42,1061	     33,3375	-87,9	     34,8446	-87,8
      42,108	     33,6565	-89,8	     34,9196	-88,9
       42,11	      33,656	-90,1	     35,1441	-88,7
     42,1119	     33,7468	-86,9	     35,1921	-87,1
     42,1139	     33,8867	-89,8	      35,261	-89,2
     42,1158	     33,9849	-89,3	     35,3644	-89,5
     42,1178	     34,0625	-85,9	     35,4921	-86,0
     42,1197	      34,351	-86,1	     35,6427	-87,9
     42,1217	     34,4839	-87,1	     35,9406	-86,6
     42,1237	     34,6043	-85,8	     36,1417	-86,1
     42,1256	     34,7411	-86,9	     36,3009	-86,8
     42,1276	     34,8873	-86,5	     36,4126	-87,3
     42,1295	     34,9684	-86,6	     36,7684	-86,0
     42,1315	     35,0519	-86,6	     36,8021	-85,4
     42,1334	     35,2914	-88,3	     36,9266	-85,4
     42,1354	     35,3436	-88,0	     37,1601	-86,9
     42,1373	     35,5746	-85,9	       37,33	-86,7
     42,1393	     35,7225	-87,5	     37,5296	-87,7
     42,1413	     35,9526	-85,2	      37,736	-86,8
     42,1432	     36,1224	-84,0	     37,8858	-83,8
     42,1452	     36,2886	-86,8	     37,9694	-85,4
     42,1471	      36,382	-86,2	      38,246	-84,7
     42,1491	     36,5197	-84,3	     38,5085	-83,1
      42,151	     36,5106	-85,1	     38,6502	-84,5
      42,153	     36,6785	-85,5	      38,747	-83,6
     42,1549	     36,9879	-84,2	     38,9356	-83,2
     42,1569	     37,1411	-85,8	     39,0242	-82,8
     42,1588	     37,2696	-86,4	     39,2656	-84,8
     42,1608	     37,4967	-83,6	     39,3974	-84,6
     42,1628	     37,6614	-83,9	     39,5899	-83,8
     42,1647	     37,9307	-84,6	     39,6924	-84,4
     42,1667	     38,0267	-85,1	     39,7777	-84,9
     42,1686	     38,1754	-82,7	     39,9456	-82,2
     42,1706	      38,251	-83,1	     40,2138	-82,5
     42,1725	     38,2875	-82,7	     40,4373	-83,3
     42,1745	     38,4178	-82,0	     40,7378	-83,0
     42,1764	     38,6777	-85,3	     40,9139	-81,2
     42,1784	     38,7832	-83,8	     41,2025	-82,7
     42,1804	     38,9552	-82,3	     41,3194	-81,5
     42,1823	     39,1947	-83,1	     41,5794	-79,8
     42,1843	     39,3289	-82,8	     41,8037	-81,0
     42,1862	     39,5832	-82,1	     42,0841	-81,8
     42,1882	     39,8581	-82,0	     42,3064	-80,7
     42,1901	     39,9796	-83,0	     42,4007	-82,2
     42,1921	     40,1021	-79,5	      42,521	-82,1
      42,194	     40,2451	-80,2	     42,7965	-79,7
      42,196	     40,5644	-82,3	     42,8892	-80,0
     42,1979	     40,7658	-81,0	     43,1659	-80,5
     42,1999	     40,9031	-80,6	     43,4044	-79,8
     42,2019	     41,1846	-80,8	      43,626	-79,3
     42,2038	     41,2572	-81,1	     43,8552	-79,5
     42,2058	     41,5211	-79,8	      44,186	-77,3
     42,2077	     41,6226	-79,4	     44,3729	-77,2
     42,2097	     41,8465	-81,9	     44,7018	-77,0
     42,2116	     42,0422	-80,5	     44,9275	-78,9
     42,2136	     42,2937	-79,4	     45,2483	-77,8
     42,2155	     42,4489	-80,7	     45,3798	-77,8
     42,2175	     42,6686	-78,2	     45,5052	-78,3
     42,2195	     42,8767	-78,2	      45,856	-76,7
     42,2214	     43,0345	-77,9	     46,0226	-76,6
     42,2234	     43,2024	-78,5	     46,0975	-78,4
     42,2253	     43,3197	-77,5	      46,423	-79,2
     42,2273	      43,533	-76,8	     46,7379	-76,4
     42,2292	     43,7197	-78,3	     46,9336	-76,9
     42,2312	     43,8281	-77,4	      47,264	-77,1
     42,2331	     44,1711	-76,8	     47,5139	-76,2
     42,2351	     44,4297	-77,6	     47,6885	-72,5
      42,237	     44,7222	-76,3	     47,9523	-74,3
      42,239	     45,0099	-76,3	     48,1725	-74,4
      42,241	     45,3351	-77,5	     48,4069	-74,4
     42,2429	     45,4279	-78,0	     48,7513	-73,4
     42,2449	     45,6193	-76,3	     48,9387	-73,9
     42,2468	     45,8149	-74,6	     49,2813	-73,3
     42,2488	     46,0394	-75,8	     49,5935	-72,9
     42,2507	     46,1963	-73,9	     50,0757	-74,3
     42,2527	     46,4637	-74,2	     50,3303	-74,1
     42,2546	     46,6202	-74,1	     50,4712	-71,7
     42,2566	      46,828	-75,0	     50,7502	-71,4
     42,2586	     47,0287	-72,4	     50,9643	-72,0
     42,2605	     47,3128	-73,7	     51,2256	-71,0
     42,2625	     47,5708	-73,9	     51,4209	-69,8
     42,2644	     47,7789	-72,5	     51,7399	-70,9
     42,2664	     48,1336	-72,4	     51,9664	-71,9
     42,2683	     48,3057	-72,6	     52,2574	-68,4
     42,2703	     48,5585	-72,5	     52,5276	-68,1
     42,2722	     48,7861	-72,1	     52,7871	-69,5
     42,2742	      49,068	-71,5	     53,0214	-70,0
     42,2761	     49,2609	-73,1	     53,3047	-66,3
     42,2781	     49,3774	-69,5	     53,4845	-66,7
     42,2801	     49,5083	-70,2	     53,8295	-68,4
      42,282	     49,8028	-71,1	     54,0185	-66,7
      42,284	     49,9551	-69,7	     54,3976	-67,1
     42,2859	     50,2391	-67,3	     54,6599	-67,5
     42,2879	     50,4478	-68,8	     54,9537	-66,3
     42,2898	      50,711	-69,7	     55,0402	-65,1
     42,2918	     50,8984	-68,1	     55,3663	-67,4
     42,2937	     51,2275	-67,3	     55,6591	-67,9
     42,2957	     51,4796	-67,4	     56,0627	-64,8
     42,2977	      51,735	-68,4	     56,3234	-64,9
     42,2996	     51,9331	-66,8	     56,6211	-66,4
     42,3016	      52,399	-67,3	     56,8623	-65,1
     42,3035	     52,6422	-67,9	     57,1557	-63,2
     42,3055	     52,9638	-66,4	     57,4248	-63,2
     42,3074	     53,3722	-65,7	     57,7276	-62,3
     42,3094	     53,6314	-67,8	     57,8983	-62,1
     42,3113	     53,9209	-64,4	     58,1691	-61,7
     42,3133	     54,1036	-64,2	     58,4012	-62,3
     42,3153	     54,4478	-64,8	     58,7051	-60,0
     42,3172	     54,8143	-65,4	      58,887	-58,4
     42,3192	     54,9496	-64,4	     59,2153	-60,1
     42,3211	     55,4607	-62,7	     59,5583	-60,6
     42,3231	     55,6712	-62,6	     59,7592	-60,4
      42,325	     55,9133	-61,1	     59,9922	-57,3
      42,327	     56,1221	-60,7	     60,1764	-57,6
     42,3289	     56,5276	-62,1	     60,4836	-59,5
     42,3309	     56,8173	-60,9	      60,741	-57,6
     42,3328	     57,0859	-59,9	     60,9629	-57,5
     42,3348	      57,349	-58,2	     61,2362	-56,5
     42,3368	     57,7591	-60,9	     61,5444	-58,0
     42,3387	     57,8019	-61,5	     61,7821	-55,9
     42,3407	     58,0986	-58,4	     62,0259	-56,9
     42,3426	      58,381	-58,6	     62,3537	-56,8
     42,3446	     58,5559	-59,9	     62,6856	-53,9
     42,3465	     58,8211	-58,3	     62,8323	-53,9
     42,3485	     59,1955	-58,2	     62,9669	-55,0
     42,3504	     59,4926	-58,0	     63,2774	-54,1
     42,3524	     59,6379	-57,9	      63,472	-50,6
     42,3544	     59,8936	-56,0	      63,632	-52,0
     42,3563	      60,198	-55,9	     63,8177	-52,1
     42,3583	     60,4436	-55,9	     64,1545	-50,9
     42,3602	     60,6155	-55,6	     64,3358	-51,5
     42,3622	     60,8578	-52,9	     64,4403	-50,6
     42,3641	     61,0406	-53,4	     64,6026	-50,6
     42,3661	     61,3736	-53,1	     64,9116	-48,6
      42,368	     61,5704	-53,6	     65,0325	-47,9
       42,37	     61,8934	-51,8	      65,283	-49,4
     42,3719	     62,1166	-51,4	     65,4741	-49,2
     42,3739	     62,2432	-51,5	     65,8119	-47,0
     42,3759	     62,3916	-50,8	     66,0082	-46,5
     42,3778	     62,6217	-51,9	      66,247	-48,3
     42,3798	      62,852	-51,1	     66,3293	-47,3
     42,3817	     63,0931	-50,0	     66,4695	-46,3
     42,3837	     63,4481	-48,8	     66,5679	-45,0
     42,3856	     63,7737	-50,3	      66,754	-44,8
     42,3876	     63,9153	-51,0	     66,9591	-46,3
     42,3895	      64,203	-47,7	     67,2101	-44,5
     42,3915	     64,3375	-47,0	     67,2475	-44,4
     42,3935	      64,451	-48,3	     67,4402	-43,9
     42,3954	     64,6781	-48,6	     67,6301	-44,1
     42,3974	     64,7976	-47,9	     67,6334	-42,9
     42,3993	     65,1663	-45,8	     67,6956	-44,5
     42,4013	      65,412	-47,2	     67,8554	-43,7
     42,4032	     65,5361	-45,1	     67,9887	-41,2
     42,4052	     65,7029	-43,7	     68,1716	-42,3
     42,4071	      65,702	-43,8	     68,1436	-42,0
     42,4091	     65,9447	-45,0	     68,3152	-41,8
      42,411	     66,1571	-44,6	     68,4634	-39,2
      42,413	     66,3906	-41,0	     68,6124	-39,2
      42,415	     66,5566	-42,1	     68,5413	-39,2
     42,4169	       66,63	-42,4	     68,7388	-39,6
     42,4189	     66,7294	-41,4	     68,7312	-35,2
     42,4208	     66,9636	-39,5	      68,882	-36,7
     42,4228	     67,1356	-39,4	     68,8563	-37,8
     42,4247	     67,4236	-40,6	     68,9569	-37,5
     42,4267	     67,4756	-40,1	     68,9525	-34,3
     42,4286	     67,7783	-38,1	     69,0271	-35,3
     42,4306	     67,8823	-39,6	     69,1369	-35,2
     42,4326	     67,9468	-38,8	     69,1737	-34,6
     42,4345	     68,2715	-36,4	     69,0232	-33,1
     42,4365	     68,2916	-36,7	     69,0346	-33,0
     42,4384	     68,3267	-37,8	     69,2532	-34,5
     42,4404	     68,3747	-36,6	     69,4726	-33,9
     42,4423	     68,5481	-36,1	     69,4799	-33,3
     42,4443	      68,765	-35,3	     69,5495	-31,3
     42,4462	     68,7374	-34,8	      69,704	-32,9
     42,4482	     68,8611	-35,3	     69,5249	-31,0
     42,4501	     68,9089	-34,0	     69,3924	-32,3
     42,4521	     68,9792	-33,6	     69,4232	-31,2
     42,4541	      69,048	-34,1	      69,484	-32,0
      42,456	     69,0724	-32,8	     69,5513	-30,0
      42,458	     69,1944	-31,7	     69,6063	-31,4
     42,4599	     69,2321	-33,4	     69,5565	-29,8
     42,4619	     69,3495	-32,5	     69,6632	-30,0
     42,4638	     69,2363	-31,6	     69,6892	-29,0
     42,4658	     69,2378	-31,0	     69,7037	-28,5
     42,4677	     69,2482	-30,7	     69,6779	-29,3
     42,4697	     69,2487	-31,5	     69,5914	-29,2
     42,4717	     69,3415	-28,6	     69,6058	-27,0
     42,4736	     69,4823	-28,3	     69,5623	-26,1
     42,4756	     69,6003	-28,6	     69,5574	-28,0
     42,4775	     69,7809	-28,6	     69,4613	-27,4
     42,4795	     69,6374	-26,0	      69,364	-26,9
     42,4814	     69,7535	-26,0	     69,3885	-25,2
     42,4834	     69,7533	-26,4	     69,4214	-25,3
     42,4853	      69,645	-27,1	     69,4174	-24,9
     42,4873	     69,5944	-23,2	     69,4228	-25,0
     42,4892	     69,7417	-23,5	     69,2347	-23,6
     42,4912	     69,7409	-24,6	     69,1845	-22,6
     42,4932	       69,67	-24,8	      69,162	-22,5
     42,4951	     69,8016	-21,9	     69,2761	-22,9
     42,4971	     69,6757	-21,3	     69,1386	-22,1
      42,499	     69,6254	-23,2	     69,1185	-22,7
      42,501	     69,5153	-23,6	      69,079	-19,7
     42,5029	     69,4424	-21,1	     69,1367	-20,4
     42,5049	      69,485	-20,3	     68,9207	-19,9
     42,5068	     69,4756	-22,0	     68,9031	-20,6
     42,5088	     69,3908	-21,5	     68,8427	-19,1
     42,5108	     69,3748	-19,7	     68,7312	-17,9
     42,5127	     69,3106	-17,7	     68,5819	-18,3
     42,5147	     69,3438	-20,4	     68,4363	-18,7
     42,5166	     69,4209	-20,7	     68,5554	-17,4
     42,5186	     69,4377	-17,8	     68,5508	-17,0
     42,5205	     69,3764	-16,7	     68,4169	-17,5
     42,5225	      69,289	-20,0	     68,2258	-17,9
     42,5244	     69,1309	-19,0	     68,2542	-17,5
     42,5264	     69,0248	-17,7	     68,1453	-14,7
     42,5283	     69,0685	-15,4	     68,0883	-13,8
     42,5303	     68,9374	-18,5	     67,8057	-16,3
     42,5323	     68,8188	-17,1	     67,6912	-16,7
     42,5342	     68,8853	-15,2	      67,527	-13,9
     42,5362	      68,782	-14,9	     67,5482	-13,7
     42,5381	     68,6219	-17,7	     67,3469	-14,6
     42,5401	     68,5232	-17,0	     67,2665	-14,6
      42,542	     68,4897	-16,3	     67,2194	-12,4
      42,544	     68,5824	-13,9	     67,2654	-11,8
     42,5459	     68,3766	-13,9	     67,0857	-13,4
     42,5479	     68,3039	-15,8	      66,995	-12,7
     42,5499	     68,2606	-12,6	     66,8743	-11,6
     42,5518	     68,1466	-12,8	     66,9578	-10,8
     42,5538	     68,0187	-14,5	     66,7947	-11,6
     42,5557	     67,9586	-14,1	     66,6339	-11,9
     42,5577	      67,727	-12,9	     66,6103	-10,6
     42,5596	     67,5712	-11,9	     66,5536	-9,8
     42,5616	      67,504	-12,4	     66,2906	-10,6
     42,5635	      67,334	-12,2	     65,9667	-10,1
     42,5655	     67,2838	-12,5	     65,8706	-9,5
     42,5674	     67,1427	-10,9	     65,8335	-7,9
     42,5694	     67,0624	-8,7	     65,5251	-9,5
     42,5714	     66,9684	-12,3	     65,3266	-9,3
     42,5733	     66,9297	-10,7	     65,3588	-8,8
     42,5753	     66,7414	-9,3	     65,3173	-7,2
     42,5772	     66,8278	-7,9	     65,2292	-8,4
     42,5792	     66,6287	-10,4	     65,0819	-7,7
     42,5811	     66,4666	-9,8	     64,9556	-8,3
     42,5831	     66,3051	-6,6	     64,8872	-5,9
      42,585	     66,2539	-7,8	     64,8362	-5,5
      42,587	     66,0579	-7,5	     64,5133	-7,3
      42,589	     65,9322	-7,7	      64,467	-7,2
     42,5909	      65,745	-7,2	     64,4853	-6,9
     42,5929	     65,6068	-5,9	     64,2741	-4,8
     42,5948	     65,5139	-5,9	     64,1359	-5,3
     42,5968	     65,1565	-7,0	      64,058	-4,1
     42,5987	     65,2238	-6,2	     63,8916	-5,4
     42,6007	     65,0262	-5,5	      63,775	-3,2
     42,6026	     64,9257	-5,0	     63,5379	-4,0
     42,6046	      64,623	-6,1	     63,4587	-3,6
     42,6065	     64,5841	-6,3	     63,3807	-3,4
     42,6085	     64,5434	-3,6	     63,3225	-2,7
     42,6105	      64,582	-3,8	      63,037	-3,8
     42,6124	     64,3062	-4,3	     62,8602	-2,6
     42,6144	     64,0854	-5,0	     62,7274	-3,8
     42,6163	      64,034	-2,5	     62,6635	-2,7
     42,6183	     63,9006	-2,0	     62,4881	-2,0
     42,6202	     63,6925	-1,9	     62,4193	-1,6
     42,6222	     63,5211	-4,0	     62,1416	-3,1
     42,6241	      63,377	-2,8	     62,0866	-2,9
     42,6261	     63,2143	-0,8	     61,9126	-0,6
     42,6281	     63,1069	-0,7	     61,8483	 0,2
       42,63	      62,929	-2,5	     61,6972	-1,3
      42,632	     62,8585	-2,8	     61,7171	-1,0
     42,6339	     62,6281	-0,2	     61,5515	-0,7
     42,6359	     62,4727	-0,3	     61,4635	 0,3
     42,6378	       62,17	-0,9	     61,3736	 1,8
     42,6398	     62,0423	-0,1	     61,0531	-0,1
     42,6417	     62,0058	 0,7	     60,8779	 0,2
     42,6437	     61,8756	 1,2	     60,6328	 2,2
     42,6456	       61,67	 0,2	     60,5189	 2,4
     42,6476	     61,5809	 0,9	     60,2039	 0,6
     42,6496	     61,4301	 0,8	     60,1383	 1,5
     42,6515	     61,2078	 2,6	     60,0511	 3,3
     42,6535	     61,0963	 1,8	     59,9913	 3,7
     42,6554	     60,9246	 1,7	     59,7787	 2,4
     42,6574	     60,7307	 2,2	     59,6146	 2,6
     42,6593	     60,6391	 2,0	     59,5002	 3,9
     42,6613	     60,5333	 2,9	      59,377	 3,8
     42,6632	     60,3235	 2,5	     59,2219	 4,0
     42,6652	     60,1963	 1,7	     59,0435	 3,7
     42,6672	     60,0991	 2,2	     58,7572	 4,0
     42,6691	     59,8975	 3,9	     58,7775	 3,7
     42,6711	     59,6888	 4,4	     58,5717	 5,7
      42,673	     59,4076	 2,8	     58,4491	 4,8
      42,675	     59,3304	 3,5	     58,2134	 4,8
     42,6769	     59,1397	 5,1	     58,0514	 3,3
     42,6789	     59,1724	 6,4	      57,917	 6,0
     42,6808	     58,8865	 4,3	      57,881	 6,1
     42,6828	     58,6245	 5,2	     57,6308	 5,1
     42,6847	      58,512	 5,6	     57,5899	 4,4
     42,6867	     58,3931	 7,1	     57,4211	 8,4
     42,6887	     58,2561	 8,0	     57,3462	 7,4
     42,6906	     58,0914	 6,4	     57,2139	 7,3
     42,6926	     58,0076	 7,0	     57,0085	 5,1
     42,6945	     57,8377	 7,8	     56,8549	 6,4
     42,6965	     57,5885	 7,3	     56,7344	 6,0
     42,6984	     57,4106	 9,1	     56,5266	 8,7
     42,7004	     57,3078	 7,9	     56,3091	 7,1
     42,7023	     57,0267	 8,1	     56,0226	 6,6
     42,7043	     57,0153	 9,8	     55,9923	 6,3
     42,7063	     56,7532	 9,5	     55,9141	 9,0
     42,7082	     56,4964	10,1	     55,8004	 9,1
     42,7102	     56,2594	 8,6	     55,5734	 7,4
     42,7121	     56,1855	 9,3	     55,5095	 7,6
     42,7141	     56,1087	11,3	     55,3609	 9,9
      42,716	     55,9557	11,4	     55,2873	 9,7
      42,718	     55,7441	10,5	     54,9235	 8,6
     42,7199	     55,5681	 9,9	       54,84	 7,5
     42,7219	      55,486	10,5	     54,6295	10,1
     42,7239	     55,4978	12,3	     54,5148	 9,2
     42,7258	     55,2728	12,4	     54,2411	10,0
     42,7278	     55,0652	11,1	     54,0569	 9,2
     42,7297	     54,8644	10,0	     54,0112	10,0
     42,7317	     54,7155	13,2	     53,9092	 9,3
     42,7336	     54,5798	12,7	     53,8179	10,5
     42,7356	     54,4657	13,1	     53,7548	10,2
     42,7375	     54,3189	12,4	     53,4645	11,3
     42,7395	     54,2266	10,8	     53,2482	10,7
     42,7414	     54,0599	13,8	     53,0619	10,9
     42,7434	     53,9386	13,6	     52,9509	12,1
     42,7454	     53,6748	13,1	     52,7829	11,8
     42,7473	     53,4307	11,8	     52,5243	11,5
     42,7493	       53,21	14,1	     52,4245	11,1
     42,7512	      53,106	13,5	     52,3502	13,5
     42,7532	     52,8619	13,1	     52,1627	14,9
     42,7551	     52,6724	12,4	     51,8697	13,6
     42,7571	     52,5835	12,5	     51,8053	13,9
      42,759	     52,3921	13,8	     51,6349	13,9
      42,761	     52,2903	13,5	     51,5349	13,3
      42,763	     52,1235	13,5	     51,4509	15,1
     42,7649	     51,9324	13,9	     51,3681	14,8
     42,7669	     51,6711	13,6	     51,0968	12,9
     42,7688	      51,636	14,7	     50,9094	12,8
     42,7708	     51,4105	14,6	     50,7474	16,8
     42,7727	     51,3133	14,7	     50,6361	16,5
     42,7747	     51,1393	14,5	     50,5765	15,4
     42,7766	     51,0157	14,0	     50,5377	14,7
     42,7786	     50,9156	16,6	     50,3051	16,2
     42,7805	     50,8688	17,2	     50,1941	15,8
     42,7825	     50,5842	14,5	       50,04	16,7
     42,7845	     50,5139	16,1	     49,8674	14,9
     42,7864	     50,3523	16,7	     49,7651	14,1
     42,7884	     50,1767	17,9	     49,5375	14,3
     42,7903	      49,933	15,9	      49,426	15,2
     42,7923	      49,859	16,6	     49,3387	16,0
     42,7942	     49,6621	17,6	       49,26	16,6
     42,7962	     49,5862	18,6	     48,9875	15,4
     42,7981	     49,3376	18,5	     48,7325	15,9
     42,8001	     49,3633	19,3	     48,6878	17,1
     42,8021	     49,3013	18,3	     48,5827	17,2
      42,804	     49,1128	18,5	     48,2794	16,8
      42,806	     48,8134	18,7	     48,1057	18,0
     42,8079	     48,7257	18,3	     48,0203	17,3
     42,8099	     48,5133	20,4	     47,9692	18,6
     42,8118	     48,3504	19,5	     47,9489	19,0
     42,8138	     48,1205	17,0	     47,8409	19,3
     42,8157	     48,2199	21,1	     47,5188	17,8
     42,8177	     48,0281	20,3	     47,2686	18,3
     42,8196	     47,9352	19,8	     47,1038	20,0
     42,8216	     47,6783	18,1	     46,9884	20,3
     42,8236	     47,6836	17,2	     46,8531	20,3
     42,8255	     47,4766	19,8	     46,8703	19,5
     42,8275	     47,2537	20,3	     46,6334	18,7
     42,8294	     47,0569	18,9	     46,5415	19,2
     42,8314	     46,9451	19,5	     46,4411	20,4
     42,8333	      46,735	18,8	     46,4173	20,7
     42,8353	     46,6943	19,4	     46,2043	18,4
     42,8372	     46,5109	20,9	     46,1274	18,2
     42,8392	     46,4116	21,3	     45,8572	21,4
     42,8412	     46,2451	18,3	     45,7433	20,9
     42,8431	     46,1721	19,8	       45,53	20,5
     42,8451	     46,1036	21,1	     45,4476	19,5
      42,847	     46,0019	22,1	     45,3012	19,3
      42,849	     45,8116	20,8	     45,1835	20,3
     42,8509	     45,6868	21,9	     45,0855	21,5
     42,8529	     45,4444	21,6	      44,957	21,2
     42,8548	     45,3258	21,8	     44,7423	20,8
     42,8568	     45,1127	23,1	     44,6237	21,6
     42,8587	     44,9381	25,2	     44,4138	20,5
     42,8607	      44,755	22,1	     44,3822	21,4
     42,8627	      44,594	23,5	     44,2501	23,0
     42,8646	      44,483	23,2	     44,2009	24,4
     42,8666	     44,3881	23,2	     44,0303	22,2
     42,8685	     44,2426	23,3	     43,9639	21,9
     42,8705	     44,2611	23,2	      43,795	23,6
     42,8724	      44,022	23,2	     43,7608	24,0
     42,8744	     43,9469	22,2	     43,5108	23,8
     42,8763	     43,8436	22,1	     43,4306	22,2
     42,8783	     43,8005	23,8	     43,3005	22,3
     42,8803	     43,6155	23,6	     43,1889	21,7
     42,8822	     43,4315	22,4	     43,1038	23,0
     42,8842	     43,3075	22,2	     42,9216	23,3
     42,8861	     43,2736	23,7	     42,8492	23,5
     42,8881	     43,1076	24,6	      42,662	21,8
       42,89	     42,8162	24,5	     42,6028	22,2
      42,892	     42,6391	24,3	     42,4797	22,8
     42,8939	     42,5007	23,6	     42,3528	24,0
     42,8959	     42,4527	24,6	     42,1225	23,5
     42,8979	     42,3479	26,0	     41,9472	25,4
     42,8998	     42,2034	26,3	     41,7063	22,9
     42,9018	     42,0327	23,7	     41,4856	23,6
     42,9037	     42,0044	26,0	     41,4967	26,0
     42,9057	     41,8398	26,3	     41,4995	26,9
     42,9076	     41,7864	26,2	     41,4424	25,3
     42,9096	     41,6713	27,1	     41,4455	25,3
     42,9115	     41,4655	27,0	     41,2243	25,1
     42,9135	     41,3199	26,4	     41,2629	24,7
     42,9154	     41,0638	25,0	       41,09	26,6
     42,9174	      41,096	24,6	     40,9081	24,8
     42,9194	     40,9942	26,2	     40,7304	24,5
     42,9213	     40,9199	26,8	     40,6201	24,1
     42,9233	     40,7325	25,8	     40,3601	24,6
     42,9252	     40,6124	25,4	     40,2788	24,8
     42,9272	     40,4246	24,4	     40,1457	26,2
     42,9291	     40,2954	26,6	      40,092	25,5
     42,9311	     40,1953	27,5	     39,9312	26,9
      42,933	     40,0859	27,1	     39,7818	25,5
      42,935	     40,0069	25,7	      39,799	26,8
      42,937	     39,9709	26,6	     39,7383	27,3
     42,9389	      39,823	27,3	     39,5672	25,6
     42,9409	     39,6879	28,6	     39,4559	27,7
     42,9428	     39,5007	29,2	     39,2068	26,1
     42,9448	     39,2829	28,5	     39,1069	27,6
     42,9467	     39,1483	28,4	     39,1069	26,1
     42,9487	     39,0986	26,9	     39,0579	28,4
     42,9506	     39,0486	28,1	     38,9498	27,5
     42,9526	     38,9998	28,4	     38,7435	27,4
     42,9545	     38,8538	27,9	     38,6042	26,4
     42,9565	     38,7539	27,3	     38,6241	27,2
     42,9585	     38,5754	27,6	     38,4025	26,2
     42,9604	     38,5775	27,1	     38,3099	27,8
     42,9624	     38,4875	28,9	     38,2225	28,7
     42,9643	     38,4328	28,7	     38,0674	26,6
     42,9663	     38,2785	28,1	     38,0493	28,7
     42,9682	      38,179	29,2	     37,9504	28,4
     42,9702	     37,9577	30,0	      37,783	29,0
     42,9721	     37,8226	28,9	     37,6186	29,4
     42,9741	     37,7689	29,7	     37,5666	30,9
     42,9761	     37,5762	30,3	     37,3941	28,4
      42,978	     37,3333	31,9	     37,3239	29,0
       42,98	     37,2272	29,5	     37,1218	30,2
     42,9819	     37,1453	28,0	     37,0883	30,0
     42,9839	     37,2013	30,3	     37,0262	28,8
     42,9858	     37,1085	30,2	     36,7853	29,1
     42,9878	     37,0048	29,9	     36,7018	28,1
     42,9897	     36,8315	29,7	     36,5814	28,5
     42,9917	     36,8426	29,0	     36,5645	28,5
     42,9936	     36,7211	29,0	      36,439	28,6
     42,9956	     36,6203	28,6	     36,3671	30,4
     42,9976	     36,5021	30,7	     36,2957	30,4
     42,9995	     36,3913	32,8	     36,1732	29,7
     43,0015	     36,2441	30,5	     36,0491	30,5
     43,0034	     36,1798	30,7	     35,8951	30,4
     43,0054	     35,9712	31,1	     35,7356	30,1
     43,0073	     35,9067	31,9	     35,7062	31,8
     43,0093	     35,7088	31,9	     35,6932	31,5
     43,0112	     35,6944	32,7	      35,629	29,7
     43,0132	     35,5001	31,1	     35,5301	28,6
     43,0152	     35,4491	29,6	     35,2873	30,2
     43,0171	     35,3826	30,0	     35,2685	28,8
     43,0191	     35,3647	30,4	     35,0526	30,0
      43,021	     35,2826	32,2	     34,9476	30,6
      43,023	     35,1445	32,0	     34,8895	31,7
     43,0249	     34,8941	29,7	     34,7979	30,4
     43,0269	      34,885	31,6	     34,7608	31,0
     43,0288	     34,8407	30,6	     34,6353	32,7
     43,0308	     34,7674	31,8	     34,5114	32,7
     43,0327	     34,6606	32,5	     34,4346	33,4
     43,0347	     34,6245	33,4	      34,418	31,8
     43,0367	     34,4761	34,9	     34,2337	31,4
     43,0386	     34,4099	32,8	      34,167	30,8
     43,0406	     34,2443	32,0	     34,0776	29,5
     43,0425	     34,1472	32,6	     33,9687	30,3
     43,0445	     34,1543	33,2	     33,9671	32,4
     43,0464	     33,9269	34,4	     33,9667	32,2
     43,0484	     33,7962	32,2	     33,8512	32,8
     43,0503	      33,726	31,2	     33,6371	30,5
     43,0523	     33,6038	30,7	     33,5974	32,9
     43,0543	     33,6202	33,2	     33,4575	33,0
     43,0562	     33,4636	33,9	     33,3439	33,5
     43,0582	     33,4136	33,0	     33,2561	32,8
     43,0601	     33,3034	35,0	     33,2794	33,2
     43,0621	      33,241	33,2	     33,1355	33,0
      43,064	     33,1043	32,9	     33,0502	32,0
      43,066	     33,1217	33,2	     32,9404	34,1
     43,0679	     33,0044	33,7	     32,9864	33,8
     43,0699	     32,8629	35,9	     32,8501	32,6
     43,0718	     32,7261	34,4	     32,7564	32,6
     43,0738	     32,6697	32,4	     32,6108	33,5
     43,0758	     32,5584	31,9	     32,5178	32,1
     43,0777	     32,5281	32,8	     32,3974	32,7
     43,0797	     32,4742	32,0	     32,2997	34,1
     43,0816	     32,4026	34,3	     32,1402	35,3
     43,0836	     32,3718	35,5	     32,0974	35,1
     43,0855	     32,1441	36,0	     32,0135	33,6
     43,0875	     32,0534	34,1	     31,8909	33,6
     43,0894	      31,996	35,3	     31,8395	33,2
     43,0914	     31,8047	34,2	     31,6338	32,7
     43,0934	     31,6854	34,9	     31,6789	34,5
     43,0953	     31,7033	35,8	     31,6014	34,7
     43,0973	     31,7602	35,5	      31,527	33,5
     43,0992	     31,5084	35,1	      31,469	33,5
     43,1012	     31,4674	32,2	     31,4143	34,8
     43,1031	     31,2245	32,5	      31,223	33,7
     43,1051	     31,0672	32,7	     31,2171	33,9
      43,107	     31,2021	35,0	     31,1971	36,4
      43,109	     31,2569	35,2	     31,0272	35,9
     43,1109	     31,1224	34,8	     30,9435	35,1
     43,1129	     31,0595	35,0	     30,8092	33,8
     43,1149	     30,8899	35,4	     30,8036	33,6
     43,1168	     30,8669	34,9	     30,7838	34,7
     43,1188	     30,7048	35,2	     30,7032	34,5
     43,1207	     30,6174	36,4	     30,6145	35,2
     43,1227	     30,5495	35,8	     30,5608	35,2
     43,1246	     30,4254	35,3	      30,448	36,7
     43,1266	     30,3164	35,8	     30,2001	35,3
     43,1285	     30,2173	34,2	     30,2742	34,3
     43,1305	     30,1086	34,7	     30,1043	36,4
     43,1325	     30,1028	37,0	     30,1155	34,4
     43,1344	     30,0411	36,8	     29,9749	35,1
     43,1364	     30,0982	37,0	     29,8288	35,4
     43,1383	     30,1129	38,2	     29,8823	34,8
     43,1403	     29,9898	35,8	     29,7914	35,4
     43,1422	     29,7905	35,7	     29,6581	33,4
     43,1442	     29,7373	37,2	     29,5516	34,6
     43,1461	     29,5813	35,3	     29,5685	36,0
     43,1481	     29,5545	36,9	     29,3598	36,8
       43,15	        29,5	36,2	      29,203	37,4
      43,152	     29,4647	34,6	     29,3039	36,7
      43,154	     29,4017	36,0	     29,1729	34,8
     43,1559	     29,2593	37,7	     29,2643	35,2
     43,1579	     29,1074	36,7	     29,2665	36,6
     43,1598	     29,0353	37,0	     29,0321	36,4
     43,1618	     29,0983	37,6	     28,9033	36,0
     43,1637	     28,8472	38,9	     28,9403	37,2
     43,1657	     28,7971	37,0	      28,898	38,2
     43,1676	     28,6928	36,2	     28,6563	36,1
     43,1696	     28,7197	34,9	     28,5689	36,4
     43,1716	     28,7245	36,1	     28,5951	37,4
     43,1735	     28,5823	36,6	     28,7129	38,0
     43,1755	     28,4813	37,3	     28,5822	36,6
     43,1774	     28,4604	38,9	     28,3944	37,1
     43,1794	     28,2642	39,5	     28,2726	37,0
     43,1813	     28,1801	37,5	     28,2138	36,3
     43,1833	     28,1571	37,5	       28,09	36,5
     43,1852	     28,0902	37,7	     28,1857	36,1
     43,1872	     27,9477	36,9	      28,153	37,3
     43,1891	     27,9776	38,3	     28,0278	39,0
     43,1911	     28,0662	37,4	     27,9402	38,1
     43,1931	     27,8753	38,2	     27,7786	37,7
      43,195	     27,8022	35,7	     27,6667	38,1
      43,197	     27,8682	36,8	     27,6523	37,1
     43,1989	     27,6707	37,5	     27,5485	36,2
     43,2009	     27,5656	40,5	     27,5451	36,9
     43,2028	     27,3674	37,6	     27,4989	37,1
     43,2048	     27,4458	39,1	      27,502	38,4
     43,2067	     27,4312	38,8	     27,3837	38,7
     43,2087	     27,3576	37,9	     27,3082	37,6
     43,2107	     27,3029	37,1	     27,2531	38,5
     43,2126	      27,122	36,9	     27,1108	37,3
     43,2146	     27,0496	37,1	     27,0803	37,3
     43,2165	     27,0605	37,7	     26,9601	35,4
     43,2185	     27,0515	39,2	     26,9107	38,2
     43,2204	     26,9051	40,5	     26,6947	37,2
     43,2224	     26,8171	39,5	     26,9053	38,9
     43,2243	     26,6089	39,0	     26,9737	37,2
     43,2263	     26,4896	38,4	     26,7534	38,1
     43,2282	     26,4613	39,0	     26,6039	37,7
     43,2302	     26,5239	37,6	     26,5856	37,6
     43,2322	     26,5183	38,8	     26,4685	39,8
     43,2341	     26,5625	39,0	     26,4852	38,2
     43,2361	     26,4483	38,4	     26,5103	40,2
      43,238	     26,3585	40,1	     26,4841	38,4
       43,24	     26,2512	40,2	     26,2722	37,8
     43,2419	     26,1598	38,9	     26,0722	37,6
     43,2439	     26,0835	37,8	     25,9847	37,5
     43,2458	     26,0613	39,6	     25,9506	38,8
     43,2478	      26,031	38,7	     26,0152	40,2
     43,2498	     26,0434	39,9	     26,0373	39,7
     43,2517	     25,8065	38,2	     25,9447	40,1
     43,2537	     25,7612	37,9	     25,8974	39,4
     43,2556	     25,8146	37,7	     25,7974	38,3
     43,2576	     25,5471	39,7	     25,7811	36,4
     43,2595	     25,6068	38,9	     25,7943	37,6
     43,2615	     25,5843	41,4	     25,5295	37,7
     43,2634	     25,4808	39,8	     25,3763	39,9
     43,2654	     25,4286	40,5	     25,4557	40,4
     43,2673	     25,5144	39,8	      25,416	40,0
     43,2693	     25,2392	38,4	      25,474	41,1
     43,2713	     25,3132	38,0	     25,4701	39,8
     43,2732	     25,3513	39,1	     25,4046	38,4
     43,2752	     25,2531	40,1	     25,2871	38,6
     43,2771	     25,1477	40,2	     25,1512	38,2
     43,2791	     25,0205	41,5	     25,0043	38,9
      43,281	     24,8493	41,2	     25,0338	39,8
      43,283	     24,9225	41,4	     25,0157	41,1
     43,2849	     24,8412	39,1	     24,8848	40,2
     43,2869	     24,8032	39,1	     24,7961	40,2
     43,2889	     24,5856	38,6	     24,6872	39,4
     43,2908	     24,6733	39,3	     24,7152	38,4
     43,2928	      24,696	40,5	     24,7701	38,6
     43,2947	     24,7798	40,8	     24,5829	38,3
     43,2967	     24,6429	42,4	      24,456	39,4
     43,2986	     24,5184	41,7	     24,3675	43,0
     43,3006	      24,293	40,7	     24,3852	41,9
     43,3025	     24,1542	39,2	     24,3666	41,8
     43,3045	     24,0798	38,1	     24,3917	40,3
     43,3064	     24,3302	38,8	     24,3186	39,4
     43,3084	     24,4139	39,6	     24,2894	38,3
     43,3104	     24,2911	42,7	     24,1845	39,7
     43,3123	     24,0672	42,7	     24,2035	40,2
     43,3143	     23,9354	41,8	      24,061	40,2
     43,3162	     23,9024	40,2	     23,9728	41,9
     43,3182	      23,941	39,3	     23,8234	42,3
     43,3201	     23,9423	40,2	     23,8633	42,0
     43,3221	     23,8597	39,3	     23,8631	40,2
      43,324	     23,8786	40,0	     23,7698	39,4
      43,326	     23,8796	41,2	     23,6783	39,1
      43,328	     23,6838	42,2	     23,6775	40,2
     43,3299	     23,4124	43,0	      23,632	40,1
     43,3319	     23,3785	42,7	     23,5517	42,2
     43,3338	     23,3995	41,1	     23,4991	42,9
     43,3358	      23,351	39,5	      23,279	42,2
     43,3377	     23,4616	39,4	     23,4233	41,5
     43,3397	     23,5412	40,5	     23,4154	41,2
     43,3416	     23,3785	41,6	     23,3566	39,2
     43,3436	     23,2387	42,7	     23,3155	39,5
     43,3456	     23,1592	42,3	     23,2895	40,7
     43,3475	     23,2361	42,4	     23,1645	41,4
     43,3495	     23,1562	41,7	     23,1416	42,3
     43,3514	     23,0272	40,6	     23,0131	41,8
     43,3534	     23,0648	40,5	     23,0668	41,8
     43,3553	     22,9999	41,7	     22,9155	41,6
     43,3573	     22,9074	40,7	     22,9089	40,5
     43,3592	      22,913	42,2	     22,7097	39,4
     43,3612	      22,853	43,9	     22,7432	41,8
     43,3631	     22,7791	42,3	     22,7906	41,4
     43,3651	     22,7322	43,6	      22,807	41,8
     43,3671	     22,8111	42,1	     22,7286	43,0
      43,369	     22,7562	41,5	     22,6525	42,6
      43,371	      22,673	41,0	     22,4803	42,7
     43,3729	     22,4901	42,5	     22,4254	41,7
     43,3749	     22,4049	41,6	     22,3797	41,3
     43,3768	     22,3847	42,5	     22,3542	42,2
     43,3788	     22,3642	43,0	     22,3888	41,2
     43,3807	      22,363	42,5	     22,3821	41,5
     43,3827	     22,2204	43,4	     22,3563	42,2
     43,3847	     22,2251	42,6	     22,2852	41,9
     43,3866	      22,079	41,3	     22,4257	42,9
     43,3886	     22,0628	43,0	     22,3038	41,5
     43,3905	     22,0748	41,8	     22,2217	42,0
     43,3925	       21,97	42,1	     21,9763	42,6
     43,3944	     21,8856	41,9	     21,8833	41,8
     43,3964	     21,8839	41,7	     22,0087	42,8
     43,3983	     21,7385	42,2	     21,9351	42,5
     43,4003	     21,9384	41,4	     21,9193	41,4
     43,4022	     21,9712	42,2	     21,8719	41,7
     43,4042	     21,8238	44,1	     21,7521	41,1
     43,4062	     21,6257	41,9	     21,7073	42,6
     43,4081	     21,6113	43,3	     21,6519	43,7
     43,4101	      21,629	42,5	     21,6674	43,2
      43,412	     21,6648	42,5	     21,7566	43,7
      43,414	     21,6125	41,5	     21,6143	42,0
     43,4159	     21,4718	41,8	      21,551	40,9
     43,4179	     21,3261	42,6	     21,3771	41,5
     43,4198	     21,4843	44,2	     21,1546	41,7
     43,4218	      21,374	44,0	     21,3154	43,0
     43,4238	     21,2215	45,0	     21,3162	43,4
     43,4257	     21,2479	43,1	     21,4402	44,3
     43,4277	     21,1334	41,6	     21,3957	44,1
     43,4296	     21,2634	42,7	     21,3475	42,6
     43,4316	     21,1601	41,2	     21,2128	41,8
     43,4335	       21,09	43,2	     21,0452	43,1
     43,4355	     21,1017	43,8	     20,9088	40,5
     43,4374	     21,0311	43,3	     20,9096	44,2
     43,4394	     20,9641	44,9	     20,9079	43,0
     43,4413	     20,8477	42,1	     20,8863	42,3
     43,4433	     20,8235	43,4	     20,8098	43,5
     43,4453	     20,9042	43,6	     20,7916	41,3
     43,4472	     20,7966	43,2	      20,807	42,6
     43,4492	     20,8083	44,3	     20,7962	44,2
     43,4511	     20,7186	44,0	     20,7527	44,5
     43,4531	     20,5996	43,6	     20,7482	44,8
      43,455	     20,5241	42,4	     20,6507	44,0
      43,457	     20,6555	41,6	     20,6701	41,8
     43,4589	     20,8321	42,9	     20,4753	41,8
     43,4609	     20,7019	44,2	     20,4585	42,4
     43,4629	     20,6627	44,9	     20,4749	43,0
     43,4648	     20,5478	45,9	     20,4476	43,6
     43,4668	     20,4223	44,8	     20,3576	44,4
     43,4687	     20,3799	44,1	     20,3248	43,9
     43,4707	     20,2762	42,9	     20,3627	45,3
     43,4726	     20,3437	44,3	     20,4097	43,1
     43,4746	     20,1383	42,3	     20,3453	41,9
     43,4765	     20,0839	42,7	     20,1887	43,3
     43,4785	     20,1426	45,0	     19,9555	43,1
     43,4804	      20,042	44,5	     20,0617	43,2
     43,4824	     20,0883	42,9	     19,9434	44,1
     43,4844	      20,038	42,9	     19,9307	42,7
     43,4863	     20,0925	44,0	     19,9902	42,5
     43,4883	     20,1261	44,5	     20,0042	43,8
     43,4902	     20,1372	46,2	     19,9275	43,7
     43,4922	      19,885	46,3	     19,8061	45,4
     43,4941	     19,7617	44,3	     19,7204	45,1
     43,4961	     19,6869	43,4	     19,8941	45,6
      43,498	     19,7643	43,1	     19,9094	44,3
        43,5	     19,8769	46,2	     19,8536	42,8

