X-Data [Hz]	Laser (M - Filtered) [m/s]	Phase [Deg]	
	002: [07-05-24 16:17]	
       41,25	  0,00339684	70,3
     41,2522	  0,00364257	77,2
     41,2544	  0,00371318	74,7
     41,2566	  0,00365941	68,8
     41,2588	  0,00357104	72,0
      41,261	  0,00367808	73,0
     41,2632	  0,00373652	71,5
     41,2654	  0,00369333	75,5
     41,2676	  0,00363672	68,5
     41,2698	  0,00356961	70,8
      41,272	  0,00365627	76,0
     41,2742	  0,00365747	72,3
     41,2764	   0,0036987	73,5
     41,2786	  0,00374058	76,2
     41,2808	  0,00371554	71,3
      41,283	  0,00363298	69,8
     41,2852	  0,00368275	75,7
     41,2874	  0,00364859	74,4
     41,2896	  0,00371456	77,0
     41,2918	  0,00376362	71,4
      41,294	  0,00369698	73,9
     41,2962	  0,00375172	73,5
     41,2984	  0,00374595	73,2
     41,3006	  0,00367549	65,8
     41,3028	  0,00370195	76,1
      41,305	  0,00379392	73,0
     41,3072	  0,00369465	67,2
     41,3094	  0,00375651	77,6
     41,3116	   0,0037105	73,8
     41,3138	   0,0038026	71,0
      41,316	  0,00386094	72,9
     41,3182	  0,00373623	68,4
     41,3204	    0,003727	74,8
     41,3226	  0,00381344	76,3
     41,3248	  0,00377598	64,1
      41,327	  0,00369481	75,4
     41,3292	   0,0037259	75,4
     41,3314	  0,00379315	68,4
     41,3336	  0,00378523	77,3
     41,3358	  0,00373189	71,7
      41,338	  0,00388809	71,1
     41,3402	  0,00380227	78,8
     41,3424	  0,00380343	71,4
     41,3446	  0,00380847	73,0
     41,3468	  0,00374755	75,6
      41,349	  0,00379988	71,0
     41,3512	  0,00391254	78,8
     41,3534	  0,00384671	70,4
     41,3556	  0,00388071	74,3
     41,3578	   0,0039489	76,7
       41,36	  0,00389955	67,8
     41,3622	  0,00384295	70,6
     41,3644	  0,00388742	74,6
     41,3666	  0,00388989	72,1
     41,3688	  0,00379949	73,6
      41,371	  0,00385327	70,9
     41,3732	  0,00394612	73,6
     41,3754	  0,00403934	78,3
     41,3776	  0,00387431	68,3
     41,3798	  0,00385615	74,7
      41,382	  0,00402091	77,6
     41,3842	  0,00397258	68,4
     41,3864	  0,00394874	73,7
     41,3886	   0,0038406	73,2
     41,3908	  0,00390781	74,1
      41,393	  0,00400561	74,0
     41,3952	  0,00392547	75,9
     41,3974	  0,00390171	71,2
     41,3996	  0,00397465	74,7
     41,4018	  0,00397017	71,2
      41,404	  0,00396109	71,4
     41,4062	  0,00386499	73,3
     41,4084	  0,00398208	71,4
     41,4106	  0,00404054	81,7
     41,4128	  0,00401873	71,3
      41,415	  0,00403421	68,8
     41,4172	  0,00390178	77,8
     41,4194	  0,00386252	68,9
     41,4216	  0,00405369	74,7
     41,4238	  0,00405274	76,9
      41,426	   0,0041378	69,8
     41,4282	  0,00408757	72,3
     41,4304	  0,00392553	70,9
     41,4326	  0,00399817	74,1
     41,4347	  0,00407307	78,0
      41,437	  0,00398282	69,0
     41,4391	  0,00397287	75,9
     41,4413	  0,00412351	78,5
     41,4436	  0,00415613	67,3
     41,4457	  0,00403194	73,4
     41,4479	  0,00390742	74,1
     41,4501	  0,00404065	77,8
     41,4523	  0,00416639	72,3
     41,4545	  0,00411197	71,1
     41,4567	  0,00400662	74,6
     41,4589	  0,00404647	71,7
     41,4611	  0,00409785	74,7
     41,4633	  0,00404721	76,0
     41,4655	  0,00412976	74,1
     41,4677	  0,00417396	71,6
     41,4699	  0,00412058	67,8
     41,4721	  0,00414815	75,1
     41,4743	  0,00407076	73,5
     41,4765	  0,00420339	71,3
     41,4787	  0,00420759	77,7
     41,4809	  0,00411536	72,1
     41,4831	  0,00413391	73,4
     41,4853	  0,00421636	76,1
     41,4875	  0,00420636	67,3
     41,4897	  0,00420162	77,7
     41,4919	  0,00419247	77,5
     41,4941	  0,00416686	71,3
     41,4963	  0,00415331	77,3
     41,4985	  0,00414978	72,9
     41,5007	  0,00417998	69,9
     41,5029	  0,00419565	79,6
     41,5051	  0,00421992	78,1
     41,5073	  0,00427236	73,3
     41,5095	  0,00415586	70,6
     41,5117	  0,00415125	75,0
     41,5139	  0,00408057	76,4
     41,5161	  0,00425006	73,5
     41,5183	  0,00436743	78,1
     41,5205	  0,00428895	70,2
     41,5227	  0,00418765	76,7
     41,5249	  0,00427154	73,7
     41,5271	  0,00429142	71,9
     41,5293	  0,00429838	74,9
     41,5315	  0,00432926	73,1
     41,5337	  0,00423485	74,3
     41,5359	  0,00425766	74,2
     41,5381	   0,0043607	75,3
     41,5403	  0,00437372	74,5
     41,5425	  0,00428023	74,7
     41,5447	  0,00430539	76,9
     41,5469	  0,00434184	75,8
     41,5491	  0,00446717	73,0
     41,5513	  0,00441237	74,0
     41,5535	  0,00432343	68,6
     41,5557	   0,0043068	76,7
     41,5579	  0,00435846	74,2
     41,5601	  0,00446377	73,2
     41,5623	   0,0044414	76,7
     41,5645	  0,00430606	72,8
     41,5667	  0,00430331	77,3
     41,5689	  0,00443853	74,2
     41,5711	  0,00449309	75,0
     41,5733	  0,00448643	75,3
     41,5755	  0,00446267	73,5
     41,5777	  0,00437615	74,6
     41,5799	  0,00434152	74,2
     41,5821	  0,00440342	78,0
     41,5843	  0,00444464	73,8
     41,5865	  0,00454607	74,5
     41,5887	  0,00446624	73,0
     41,5909	  0,00441199	75,6
     41,5931	  0,00451597	79,3
     41,5953	  0,00465064	69,8
     41,5975	  0,00450615	81,1
     41,5997	  0,00439542	73,9
     41,6019	   0,0045078	75,0
     41,6041	  0,00457963	80,4
     41,6063	  0,00458269	71,6
     41,6085	   0,0045515	76,9
     41,6107	  0,00454098	75,4
     41,6129	  0,00448037	71,6
     41,6151	  0,00460767	78,4
     41,6173	   0,0046177	72,7
     41,6195	  0,00443877	75,2
     41,6217	  0,00455529	76,0
     41,6239	  0,00461274	77,9
     41,6261	   0,0046446	75,5
     41,6283	  0,00471039	69,3
     41,6305	  0,00465158	78,9
     41,6327	  0,00467356	71,4
     41,6349	  0,00466035	77,4
     41,6371	  0,00465403	74,5
     41,6393	  0,00462406	76,3
     41,6415	  0,00463399	76,8
     41,6437	  0,00464696	75,0
     41,6459	  0,00477919	81,1
     41,6481	  0,00469024	70,7
     41,6503	  0,00463488	75,7
     41,6525	  0,00474779	74,5
     41,6547	  0,00479401	75,9
     41,6569	  0,00469389	76,2
     41,6591	  0,00457008	75,1
     41,6613	  0,00472599	79,3
     41,6635	  0,00484077	72,4
     41,6657	  0,00479749	77,0
     41,6679	  0,00475083	72,8
     41,6701	  0,00471037	74,4
     41,6723	  0,00480603	78,8
     41,6745	  0,00476989	71,1
     41,6767	  0,00471795	76,7
     41,6789	  0,00476874	73,0
     41,6811	  0,00478436	78,3
     41,6833	  0,00477457	71,7
     41,6855	  0,00482753	75,8
     41,6877	   0,0048437	76,2
     41,6899	  0,00488765	74,4
     41,6921	  0,00495121	78,5
     41,6943	  0,00486087	75,7
     41,6965	  0,00476537	75,2
     41,6987	  0,00488059	73,2
     41,7009	  0,00493489	77,9
     41,7031	  0,00476913	73,7
     41,7053	  0,00484118	78,6
     41,7075	  0,00492892	76,6
     41,7097	  0,00494337	72,1
     41,7119	  0,00497629	79,2
     41,7141	  0,00507575	73,8
     41,7163	  0,00500361	78,4
     41,7185	  0,00497992	75,6
     41,7207	  0,00496116	74,6
     41,7229	  0,00497269	81,2
     41,7251	  0,00502325	80,2
     41,7273	  0,00505925	73,6
     41,7295	  0,00501601	74,1
     41,7317	  0,00493019	78,9
     41,7339	  0,00503931	73,5
     41,7361	  0,00510754	79,4
     41,7383	  0,00509554	77,2
     41,7405	  0,00507725	80,0
     41,7427	  0,00513045	77,3
     41,7449	   0,0050646	74,3
     41,7471	  0,00503661	81,2
     41,7493	  0,00511848	71,7
     41,7515	  0,00511939	76,9
     41,7537	   0,0051101	78,5
     41,7559	  0,00512051	79,3
     41,7581	  0,00518003	73,1
     41,7603	  0,00511841	80,5
     41,7625	   0,0051106	77,0
     41,7647	  0,00509683	72,7
     41,7669	  0,00521985	80,4
     41,7691	  0,00522514	76,3
     41,7713	  0,00512795	77,9
     41,7735	  0,00513701	74,7
     41,7757	  0,00515697	79,5
     41,7779	  0,00526282	78,9
     41,7801	  0,00525386	77,4
     41,7823	  0,00521644	75,6
     41,7845	  0,00521499	80,8
     41,7867	  0,00525704	76,7
     41,7889	  0,00534137	76,3
     41,7911	  0,00533983	83,1
     41,7933	  0,00521605	74,2
     41,7955	   0,0052098	79,0
     41,7977	  0,00526368	79,1
     41,7999	  0,00526949	84,2
     41,8021	  0,00530003	71,5
     41,8043	  0,00537748	75,0
     41,8064	   0,0054507	75,1
     41,8087	  0,00544894	78,3
     41,8109	  0,00540162	75,9
      41,813	  0,00529584	77,5
     41,8153	  0,00532378	83,1
     41,8174	  0,00552172	74,5
     41,8196	  0,00551554	78,5
     41,8218	  0,00540509	80,6
      41,824	  0,00548278	71,3
     41,8262	  0,00548915	70,8
     41,8284	  0,00548458	82,1
     41,8306	  0,00545065	79,0
     41,8328	   0,0054682	73,0
      41,835	  0,00552343	80,8
     41,8372	  0,00553575	77,7
     41,8394	  0,00560623	79,4
     41,8416	  0,00553835	75,8
     41,8438	  0,00547708	79,1
      41,846	  0,00553722	76,2
     41,8482	  0,00556289	80,7
     41,8504	  0,00560942	74,9
     41,8526	  0,00558675	83,0
     41,8548	  0,00557942	78,5
      41,857	  0,00570871	76,7
     41,8592	  0,00581316	80,5
     41,8614	  0,00575138	78,9
     41,8636	  0,00568385	78,3
     41,8658	  0,00570035	71,6
      41,868	  0,00563568	78,8
     41,8702	  0,00560397	79,5
     41,8724	  0,00561903	80,1
     41,8746	  0,00568077	73,5
     41,8768	  0,00579354	84,6
      41,879	  0,00578469	77,7
     41,8812	  0,00584668	78,4
     41,8834	  0,00595338	80,6
     41,8856	  0,00598109	78,9
     41,8878	  0,00580134	77,4
       41,89	   0,0057434	76,9
     41,8922	  0,00582343	80,2
     41,8944	   0,0058364	76,4
     41,8966	  0,00587848	82,4
     41,8988	  0,00594535	77,3
      41,901	  0,00594143	80,7
     41,9032	  0,00585439	75,1
     41,9054	  0,00582706	79,7
     41,9076	  0,00599877	78,9
     41,9098	  0,00601673	87,4
      41,912	  0,00608742	74,5
     41,9142	  0,00601504	81,3
     41,9164	   0,0059452	77,3
     41,9186	  0,00598355	78,8
     41,9208	  0,00598884	79,6
      41,923	   0,0060042	76,3
     41,9252	  0,00599416	83,0
     41,9274	  0,00603611	82,8
     41,9296	  0,00607925	77,8
     41,9318	  0,00607429	78,9
      41,934	  0,00608764	80,1
     41,9362	   0,0060417	83,0
     41,9384	  0,00600621	79,7
     41,9406	  0,00605235	78,5
     41,9428	  0,00613603	83,1
      41,945	  0,00614021	72,8
     41,9472	   0,0062252	82,0
     41,9494	  0,00620318	81,6
     41,9516	  0,00629879	82,7
     41,9538	  0,00634615	75,7
      41,956	  0,00635157	81,5
     41,9582	  0,00632075	79,5
     41,9604	  0,00623524	82,9
     41,9626	   0,0062274	75,2
     41,9648	  0,00632351	84,1
      41,967	  0,00636845	80,2
     41,9692	  0,00638299	77,8
     41,9714	  0,00634076	77,5
     41,9736	  0,00640034	80,2
     41,9758	   0,0064086	84,6
      41,978	  0,00649016	77,6
     41,9802	  0,00657191	81,7
     41,9824	  0,00658206	79,4
     41,9846	  0,00654239	85,9
     41,9868	  0,00642295	78,3
      41,989	  0,00649913	80,2
     41,9912	  0,00646456	80,9
     41,9934	  0,00633677	85,8
     41,9956	   0,0065112	83,1
     41,9978	  0,00662305	83,1
          42	  0,00666842	79,2
     42,0022	  0,00667114	83,0
     42,0044	  0,00661837	75,4
     42,0066	  0,00662928	82,1
     42,0088	  0,00653078	81,5
      42,011	  0,00661696	81,6
     42,0132	  0,00670586	83,3
     42,0154	  0,00678043	85,1
     42,0176	   0,0069025	76,4
     42,0198	  0,00682623	83,9
      42,022	  0,00674523	83,8
     42,0242	    0,006775	82,6
     42,0264	  0,00678842	78,6
     42,0286	  0,00677572	87,2
     42,0308	  0,00686241	78,4
      42,033	  0,00694992	83,3
     42,0352	   0,0069239	80,3
     42,0374	  0,00688732	87,3
     42,0396	  0,00694618	79,6
     42,0418	  0,00698646	80,3
      42,044	  0,00705341	80,1
     42,0462	  0,00710323	83,3
     42,0484	  0,00708571	84,8
     42,0506	  0,00705048	86,8
     42,0528	  0,00707116	79,2
      42,055	  0,00712535	86,5
     42,0572	  0,00715973	78,8
     42,0594	  0,00715526	85,1
     42,0616	  0,00705051	78,4
     42,0638	  0,00705996	88,1
      42,066	  0,00709691	82,0
     42,0682	  0,00712401	86,8
     42,0704	  0,00720816	80,9
     42,0726	   0,0072481	84,3
     42,0748	  0,00734712	83,6
      42,077	  0,00732227	85,1
     42,0792	  0,00737097	78,7
     42,0814	  0,00732558	87,4
     42,0836	  0,00728919	80,4
     42,0858	  0,00727721	86,9
      42,088	  0,00746446	79,7
     42,0902	  0,00749519	84,6
     42,0924	  0,00750547	81,3
     42,0946	  0,00754774	86,3
     42,0968	  0,00756251	83,1
      42,099	  0,00752704	83,4
     42,1012	  0,00757906	85,3
     42,1034	  0,00749838	88,2
     42,1056	  0,00752138	85,5
     42,1078	  0,00759903	85,2
       42,11	  0,00767689	81,2
     42,1122	  0,00770297	88,4
     42,1144	  0,00766674	82,4
     42,1166	  0,00767579	86,0
     42,1188	  0,00776623	84,5
      42,121	  0,00776435	83,3
     42,1232	  0,00773472	86,5
     42,1254	  0,00771447	82,8
     42,1276	  0,00783888	83,8
     42,1298	  0,00782092	85,9
      42,132	  0,00786211	88,4
     42,1342	  0,00789644	85,8
     42,1364	  0,00798231	82,9
     42,1386	  0,00795793	87,6
     42,1408	  0,00797861	85,4
      42,143	  0,00804643	83,4
     42,1452	  0,00803106	89,8
     42,1474	  0,00799987	81,4
     42,1496	  0,00807402	88,3
     42,1518	  0,00812717	83,9
      42,154	   0,0081344	89,4
     42,1562	  0,00821801	83,4
     42,1584	  0,00826142	89,3
     42,1606	  0,00826002	86,8
     42,1628	  0,00831609	87,5
      42,165	  0,00837738	85,2
     42,1672	  0,00834907	84,0
     42,1694	  0,00832795	86,5
     42,1716	  0,00832478	88,4
     42,1738	  0,00833504	87,8
      42,176	  0,00842975	86,7
     42,1782	  0,00848993	84,7
     42,1804	  0,00843043	91,7
     42,1826	  0,00844759	87,8
     42,1847	  0,00852896	88,2
      42,187	   0,0085927	87,1
     42,1891	  0,00863564	87,6
     42,1913	  0,00865988	88,1
     42,1936	  0,00876075	89,5
     42,1957	   0,0087599	92,8
     42,1979	  0,00880368	82,7
     42,2001	  0,00876823	91,9
     42,2023	  0,00877916	87,7
     42,2045	  0,00874514	94,1
     42,2067	  0,00884994	85,0
     42,2089	  0,00889248	89,9
     42,2111	  0,00896191	86,8
     42,2133	  0,00900395	94,4
     42,2155	  0,00901195	85,3
     42,2177	  0,00900921	88,1
     42,2199	  0,00908489	88,8
     42,2221	  0,00906709	88,0
     42,2243	   0,0090918	94,7
     42,2265	  0,00916168	87,5
     42,2287	  0,00920866	91,0
     42,2309	  0,00920849	87,0
     42,2331	  0,00932654	93,5
     42,2353	  0,00934578	89,4
     42,2375	  0,00932658	95,9
     42,2397	  0,00931127	82,2
     42,2419	  0,00940372	93,7
     42,2441	  0,00945501	86,9
     42,2463	  0,00951341	95,3
     42,2485	  0,00961137	87,6
     42,2507	  0,00961048	93,9
     42,2529	  0,00960562	88,1
     42,2551	  0,00963788	93,9
     42,2573	  0,00973577	90,7
     42,2595	  0,00981287	91,2
     42,2617	  0,00983694	91,9
     42,2639	  0,00988289	87,0
     42,2661	  0,00984494	95,3
     42,2683	  0,00997584	90,5
     42,2705	   0,0100392	92,4
     42,2727	     0,01007	87,9
     42,2749	   0,0100416	93,0
     42,2771	   0,0100176	94,5
     42,2793	   0,0100905	98,7
     42,2815	   0,0101618	92,2
     42,2837	   0,0102211	95,5
     42,2859	   0,0102244	96,2
     42,2881	   0,0102393	89,5
     42,2903	   0,0102152	96,5
     42,2925	   0,0102371	90,6
     42,2947	   0,0102345	97,2
     42,2969	   0,0103445	90,8
     42,2991	   0,0104252	97,3
     42,3013	   0,0104475	95,2
     42,3035	   0,0105397	95,5
     42,3057	   0,0106225	90,9
     42,3079	   0,0106202	91,3
     42,3101	   0,0107044	95,2
     42,3123	   0,0107033	93,5
     42,3145	   0,0108845	100,1
     42,3167	   0,0109034	92,9
     42,3189	   0,0109803	98,3
     42,3211	    0,011114	92,9
     42,3233	   0,0110921	97,5
     42,3255	   0,0111664	94,3
     42,3277	   0,0112361	96,8
     42,3299	   0,0112215	100,4
     42,3321	   0,0112751	95,1
     42,3343	   0,0113398	97,4
     42,3365	   0,0113939	97,2
     42,3387	   0,0113908	98,7
     42,3409	   0,0113272	95,4
     42,3431	   0,0113991	99,9
     42,3453	   0,0114973	101,4
     42,3475	   0,0115496	102,1
     42,3497	   0,0116605	99,1
     42,3519	   0,0117526	95,4
     42,3541	   0,0117664	99,9
     42,3563	   0,0117707	95,8
     42,3585	   0,0117813	98,7
     42,3607	   0,0118519	103,2
     42,3629	   0,0119552	99,3
     42,3651	   0,0120055	100,7
     42,3673	   0,0120514	99,0
     42,3695	   0,0121667	103,8
     42,3717	   0,0121581	99,7
     42,3739	   0,0122375	103,4
     42,3761	   0,0123073	105,2
     42,3783	   0,0123516	100,2
     42,3805	   0,0124225	101,3
     42,3827	   0,0124688	100,6
     42,3849	   0,0125325	106,9
     42,3871	   0,0125951	100,7
     42,3893	   0,0126627	102,5
     42,3915	    0,012747	99,3
     42,3937	   0,0129247	107,5
     42,3959	   0,0129061	105,9
     42,3981	   0,0129885	102,5
     42,4003	   0,0130552	107,3
     42,4025	   0,0130557	102,3
     42,4047	   0,0131388	105,9
     42,4069	   0,0132106	103,2
     42,4091	   0,0132597	111,0
     42,4113	   0,0132649	106,5
     42,4135	   0,0133814	108,6
     42,4157	   0,0134526	112,9
     42,4179	   0,0135728	102,9
     42,4201	   0,0136409	109,2
     42,4223	   0,0136328	104,8
     42,4245	    0,013695	109,4
     42,4267	   0,0138674	104,7
     42,4289	    0,013915	109,1
     42,4311	   0,0139021	108,6
     42,4333	   0,0140504	110,8
     42,4355	   0,0141049	108,1
     42,4377	   0,0140952	110,1
     42,4399	   0,0141445	111,8
     42,4421	   0,0142679	109,8
     42,4443	   0,0143365	107,4
     42,4465	   0,0144305	116,0
     42,4487	   0,0144732	112,6
     42,4509	   0,0146006	120,7
     42,4531	   0,0145876	106,1
     42,4553	   0,0146237	113,9
     42,4575	   0,0147781	109,5
     42,4597	   0,0147481	110,6
     42,4619	   0,0148665	115,8
     42,4641	   0,0149444	111,6
     42,4663	    0,014991	115,6
     42,4685	   0,0150172	113,3
     42,4707	   0,0151584	112,6
     42,4729	   0,0152609	116,3
     42,4751	   0,0153854	116,0
     42,4773	   0,0154534	122,1
     42,4795	   0,0155033	112,2
     42,4817	   0,0155058	118,9
     42,4839	    0,015588	116,1
     42,4861	   0,0156913	121,4
     42,4883	   0,0157452	120,7
     42,4905	   0,0157367	115,6
     42,4927	   0,0158062	122,9
     42,4949	   0,0159382	117,0
     42,4971	   0,0160368	117,3
     42,4993	   0,0161938	120,8
     42,5015	   0,0162613	118,5
     42,5037	   0,0162436	127,9
     42,5059	    0,016343	119,9
     42,5081	   0,0163436	125,0
     42,5103	   0,0164858	119,3
     42,5125	   0,0165798	123,5
     42,5147	   0,0167816	124,1
     42,5169	   0,0168343	123,9
     42,5191	   0,0168304	123,0
     42,5213	   0,0167818	128,0
     42,5235	   0,0168307	122,1
     42,5257	   0,0168517	127,2
     42,5279	   0,0169903	122,3
     42,5301	   0,0171119	125,6
     42,5323	   0,0171921	125,0
     42,5345	   0,0172119	129,2
     42,5367	   0,0171938	132,8
     42,5389	   0,0172715	127,0
     42,5411	   0,0174372	134,9
     42,5433	   0,0174988	130,3
     42,5455	   0,0175246	126,4
     42,5477	   0,0176442	132,7
     42,5499	   0,0177351	129,0
     42,5521	   0,0178489	136,6
     42,5543	   0,0179163	132,9
     42,5564	   0,0179121	131,6
     42,5587	   0,0180048	135,9
     42,5609	   0,0180845	129,0
      42,563	   0,0180734	138,7
     42,5653	   0,0181173	134,8
     42,5674	   0,0181626	140,7
     42,5696	   0,0181508	134,8
     42,5718	   0,0182326	137,0
      42,574	   0,0181952	136,3
     42,5762	   0,0182669	138,2
     42,5784	   0,0183184	135,9
     42,5806	   0,0184329	145,6
     42,5828	    0,018457	140,0
      42,585	   0,0185299	145,7
     42,5872	   0,0185673	138,5
     42,5894	   0,0186078	139,6
     42,5916	   0,0185936	140,6
     42,5938	   0,0186174	142,3
      42,596	   0,0185946	142,9
     42,5982	   0,0186141	148,9
     42,6004	   0,0185988	143,8
     42,6026	   0,0186423	149,5
     42,6048	   0,0187023	142,5
      42,607	   0,0187596	145,6
     42,6092	   0,0187709	144,9
     42,6114	   0,0188689	144,8
     42,6136	   0,0188998	152,0
     42,6158	   0,0189023	146,6
      42,618	   0,0189448	150,4
     42,6202	   0,0189175	151,8
     42,6224	   0,0188904	146,7
     42,6246	   0,0189672	151,7
     42,6268	   0,0189897	149,0
      42,629	   0,0190164	150,1
     42,6312	   0,0189583	155,3
     42,6334	   0,0189605	152,7
     42,6356	   0,0189767	157,5
     42,6378	   0,0190257	155,9
       42,64	   0,0190595	154,2
     42,6422	    0,019041	154,4
     42,6444	   0,0189651	151,5
     42,6466	   0,0190071	155,2
     42,6488	   0,0189721	158,8
      42,651	   0,0189771	156,7
     42,6532	   0,0189218	162,9
     42,6554	   0,0189144	161,5
     42,6576	   0,0188585	158,1
     42,6598	   0,0188526	160,2
      42,662	   0,0188201	155,5
     42,6642	   0,0188857	159,7
     42,6664	   0,0188063	162,4
     42,6686	   0,0187351	162,3
     42,6708	   0,0187432	164,4
      42,673	    0,018756	165,9
     42,6752	   0,0187602	157,3
     42,6774	   0,0187004	166,4
     42,6796	   0,0186982	158,4
     42,6818	   0,0187065	163,6
      42,684	   0,0185975	164,8
     42,6862	   0,0185529	162,0
     42,6884	   0,0185616	172,6
     42,6906	   0,0184607	165,6
     42,6928	   0,0184002	166,1
      42,695	   0,0183432	165,6
     42,6972	   0,0182468	165,6
     42,6994	    0,018227	169,1
     42,7016	   0,0182176	165,1
     42,7038	   0,0181682	172,2
      42,706	   0,0180868	172,8
     42,7082	   0,0181534	171,4
     42,7104	   0,0180728	170,6
     42,7126	   0,0180502	177,6
     42,7148	   0,0180818	166,1
      42,717	    0,018064	171,7
     42,7192	   0,0179446	170,6
     42,7214	   0,0179107	168,0
     42,7236	   0,0179259	175,8
     42,7258	   0,0177822	171,7
      42,728	   0,0177404	180,3
     42,7302	   0,0177612	178,3
     42,7324	   0,0176851	172,2
     42,7346	   0,0176125	176,4
     42,7368	   0,0176083	174,9
      42,739	   0,0175509	171,6
     42,7412	   0,0174936	176,3
     42,7434	   0,0173554	175,5
     42,7456	   0,0172622	175,6
     42,7478	   0,0171639	181,5
       42,75	   0,0171676	176,0
     42,7522	   0,0171636	181,0
     42,7544	    0,017043	174,9
     42,7566	   0,0170771	177,7
     42,7588	    0,016908	178,4
      42,761	    0,016898	182,6
     42,7632	   0,0168046	178,0
     42,7654	   0,0167916	181,7
     42,7676	   0,0167544	183,2
     42,7698	   0,0167122	181,6
      42,772	   0,0165978	183,7
     42,7742	   0,0165888	178,9
     42,7764	   0,0164805	183,0
     42,7786	    0,016416	181,0
     42,7808	   0,0164043	181,4
      42,783	   0,0163724	179,8
     42,7852	   0,0162922	185,0
     42,7874	   0,0162029	180,6
     42,7896	   0,0161553	191,0
     42,7918	   0,0161283	184,9
      42,794	   0,0160701	183,7
     42,7962	   0,0160648	186,8
     42,7984	    0,016049	181,2
     42,8006	   0,0159317	185,5
     42,8028	   0,0158135	188,8
      42,805	   0,0157333	188,7
     42,8072	   0,0157239	183,2
     42,8094	   0,0156287	190,6
     42,8116	   0,0156118	185,0
     42,8138	    0,015535	190,9
      42,816	   0,0154038	191,3
     42,8182	   0,0153943	189,4
     42,8204	    0,015311	192,6
     42,8226	   0,0152743	187,3
     42,8248	   0,0152229	186,0
      42,827	   0,0151887	191,6
     42,8292	   0,0150766	192,9
     42,8314	   0,0149549	190,3
     42,8336	   0,0149057	193,5
     42,8358	    0,014895	189,6
      42,838	   0,0149187	193,0
     42,8402	   0,0148047	198,9
     42,8424	   0,0147069	190,6
     42,8446	   0,0146198	193,4
     42,8468	   0,0144772	193,1
      42,849	   0,0144211	190,7
     42,8512	   0,0143362	195,1
     42,8534	   0,0143433	195,6
     42,8556	   0,0143011	187,9
     42,8578	   0,0142732	194,0
       42,86	   0,0141833	-158,7
     42,8622	   0,0141745	-166,9
     42,8644	   0,0141477	-162,9
     42,8666	   0,0141224	-163,2
     42,8688	   0,0140531	-168,2
      42,871	   0,0139404	-161,8
     42,8732	   0,0138966	-159,1
     42,8754	   0,0138693	-167,4
     42,8776	   0,0137847	-161,1
     42,8798	   0,0136992	-166,3
      42,882	   0,0135835	-168,6
     42,8842	    0,013558	-162,3
     42,8864	    0,013456	-161,9
     42,8886	   0,0134261	-163,3
     42,8908	   0,0133614	-158,4
      42,893	    0,013312	-162,4
     42,8952	   0,0133191	-163,4
     42,8974	   0,0132482	-160,8
     42,8996	   0,0132156	-167,3
     42,9018	   0,0131299	-159,9
      42,904	    0,013156	-160,7
     42,9062	   0,0130935	-160,5
     42,9084	   0,0130202	-164,6
     42,9106	   0,0128669	-159,9
     42,9128	   0,0127598	-162,7
      42,915	   0,0127239	-161,2
     42,9172	   0,0126943	-155,2
     42,9194	   0,0126922	-160,3
     42,9216	   0,0126159	-155,8
     42,9238	   0,0125488	-154,5
      42,926	   0,0124831	-161,2
     42,9282	   0,0124231	-156,5
     42,9304	   0,0124749	-154,9
     42,9326	   0,0124035	-158,3
     42,9347	   0,0123746	-161,5
      42,937	   0,0123405	-156,0
     42,9391	   0,0122831	-161,6
     42,9413	   0,0121568	-158,3
     42,9436	   0,0121327	-152,1
     42,9457	   0,0120054	-154,4
     42,9479	    0,012017	-156,7
     42,9501	   0,0119417	-151,4
     42,9523	   0,0118567	-154,6
     42,9545	   0,0117512	-155,5
     42,9567	   0,0117763	-152,3
     42,9589	    0,011702	-160,1
     42,9611	   0,0116667	-156,8
     42,9633	   0,0115589	-153,2
     42,9655	   0,0115545	-156,0
     42,9677	   0,0114909	-160,2
     42,9699	   0,0115517	-153,2
     42,9721	   0,0113881	-154,9
     42,9743	   0,0113115	-156,8
     42,9765	   0,0112657	-150,4
     42,9787	   0,0111706	-153,1
     42,9809	   0,0112801	-155,9
     42,9831	   0,0111564	-150,9
     42,9853	    0,011207	-157,8
     42,9875	   0,0111779	-154,6
     42,9897	   0,0110475	-148,7
     42,9919	   0,0110019	-149,7
     42,9941	   0,0109998	-155,7
     42,9963	   0,0109576	-152,3
     42,9985	   0,0109113	-154,8
     43,0007	   0,0107935	-156,7
     43,0029	   0,0106788	-145,8
     43,0051	   0,0105966	-151,3
     43,0073	   0,0106109	-153,9
     43,0095	   0,0106034	-156,9
     43,0117	   0,0105095	-145,0
     43,0139	   0,0104965	-151,8
     43,0161	   0,0104012	-151,9
     43,0183	   0,0103828	-145,7
     43,0205	   0,0104421	-151,8
     43,0227	   0,0103754	-151,5
     43,0249	   0,0103444	-148,8
     43,0271	   0,0101966	-157,8
     43,0293	   0,0101626	-149,1
     43,0315	   0,0101305	-146,8
     43,0337	   0,0100652	-148,2
     43,0359	   0,0100226	-155,2
     43,0381	   0,0100528	-150,4
     43,0403	   0,0100652	-152,2
     43,0425	  0,00997658	-152,3
     43,0447	  0,00993508	-146,5
     43,0469	  0,00988297	-150,3
     43,0491	  0,00982562	-153,6
     43,0513	   0,0097773	-146,0
     43,0535	  0,00970789	-142,3
     43,0557	  0,00969805	-145,2
     43,0579	  0,00966914	-148,2
     43,0601	  0,00961741	-143,1
     43,0623	  0,00956898	-144,8
     43,0645	  0,00954052	-148,5
     43,0667	  0,00954472	-142,9
     43,0689	  0,00951412	-148,1
     43,0711	  0,00946607	-150,3
     43,0733	  0,00938719	-149,2
     43,0755	  0,00935158	-141,5
     43,0777	  0,00926626	-150,4
     43,0799	  0,00920476	-148,6
     43,0821	  0,00919374	-145,6
     43,0843	   0,0091746	-149,8
     43,0865	     0,00914	-149,5
     43,0887	   0,0091003	-143,1
     43,0909	  0,00904496	-146,6
     43,0931	  0,00904511	-148,1
     43,0953	  0,00908013	-141,8
     43,0975	  0,00901297	-145,9
     43,0997	    0,009034	-149,0
     43,1019	  0,00897562	-146,8
     43,1041	  0,00886038	-141,4
     43,1063	  0,00876634	-145,7
     43,1085	  0,00878797	-147,6
     43,1107	  0,00879247	-142,9
     43,1129	  0,00881985	-144,3
     43,1151	  0,00877469	-143,8
     43,1173	  0,00872766	-140,9
     43,1195	  0,00870023	-144,2
     43,1217	  0,00866067	-149,0
     43,1239	  0,00860823	-140,8
     43,1261	    0,008581	-147,6
     43,1283	  0,00860119	-141,7
     43,1305	  0,00854457	-145,0
     43,1327	  0,00847374	-143,7
     43,1349	  0,00834139	-143,0
     43,1371	  0,00841844	-146,7
     43,1393	  0,00836256	-144,4
     43,1415	  0,00842175	-142,6
     43,1437	  0,00834118	-147,4
     43,1459	  0,00830801	-146,6
     43,1481	  0,00828814	-138,9
     43,1503	  0,00817992	-143,7
     43,1525	  0,00812285	-145,4
     43,1547	   0,0081216	-138,2
     43,1569	  0,00814969	-139,6
     43,1591	  0,00810518	-144,1
     43,1613	  0,00800483	-146,6
     43,1635	  0,00801852	-139,9
     43,1657	  0,00802774	-145,2
     43,1679	  0,00797797	-142,3
     43,1701	  0,00801331	-138,4
     43,1723	  0,00792976	-143,5
     43,1745	   0,0078791	-144,6
     43,1767	  0,00789308	-139,9
     43,1789	  0,00782021	-137,2
     43,1811	  0,00784861	-144,3
     43,1833	  0,00791317	-145,6
     43,1855	  0,00785014	-135,7
     43,1877	  0,00779257	-139,4
     43,1899	  0,00773564	-140,8
     43,1921	  0,00771018	-140,9
     43,1943	  0,00770621	-135,6
     43,1965	  0,00766408	-139,3
     43,1987	  0,00760801	-141,9
     43,2009	  0,00759802	-138,5
     43,2031	   0,0075287	-139,7
     43,2053	  0,00751394	-144,6
     43,2075	  0,00749703	-140,1
     43,2097	  0,00747842	-142,7
     43,2119	  0,00749373	-145,0
     43,2141	  0,00746258	-143,6
     43,2163	  0,00738344	-140,7
     43,2185	   0,0074278	-136,8
     43,2207	  0,00738247	-141,9
     43,2229	  0,00733359	-142,9
     43,2251	  0,00720596	-139,8
     43,2273	  0,00716663	-141,0
     43,2295	  0,00717161	-145,2
     43,2317	  0,00720971	-141,5
     43,2339	  0,00728608	-139,6
     43,2361	  0,00728035	-145,8
     43,2383	  0,00721624	-140,6
     43,2405	   0,0070275	-138,5
     43,2427	   0,0069138	-140,6
     43,2449	  0,00690898	-142,5
     43,2471	  0,00688317	-138,4
     43,2493	  0,00700526	-138,9
     43,2515	  0,00695015	-141,5
     43,2537	  0,00691325	-137,1
     43,2559	  0,00693808	-136,9
     43,2581	  0,00692668	-138,8
     43,2603	  0,00689488	-139,9
     43,2625	  0,00686736	-140,7
     43,2647	  0,00689527	-137,6
     43,2669	  0,00683609	-137,6
     43,2691	  0,00676797	-139,5
     43,2713	  0,00670688	-135,4
     43,2735	  0,00662996	-135,5
     43,2757	   0,0066439	-140,3
     43,2779	  0,00669216	-139,6
     43,2801	   0,0066352	-133,5
     43,2823	  0,00658634	-137,0
     43,2845	  0,00668906	-140,0
     43,2867	  0,00669222	-137,8
     43,2889	  0,00660894	-133,2
     43,2911	   0,0064856	-132,2
     43,2933	  0,00646155	-138,7
     43,2955	  0,00644143	-135,3
     43,2977	  0,00646253	-134,5
     43,2999	  0,00644825	-136,1
     43,3021	  0,00648875	-139,2
     43,3043	  0,00643806	-133,4
     43,3064	  0,00643113	-134,9
     43,3087	   0,0063431	-135,1
     43,3109	  0,00628381	-139,2
      43,313	   0,0064282	-136,7
     43,3153	  0,00643329	-131,8
     43,3174	  0,00639535	-131,0
     43,3196	  0,00627295	-136,8
     43,3218	  0,00625419	-133,2
      43,324	  0,00625203	-135,8
     43,3262	  0,00618052	-136,7
     43,3284	  0,00616802	-134,2
     43,3306	  0,00621341	-130,9
     43,3328	  0,00620108	-131,6
      43,335	  0,00618305	-133,9
     43,3372	  0,00603449	-139,4
     43,3394	  0,00601197	-134,8
     43,3416	  0,00601804	-133,0
     43,3438	  0,00614759	-134,8
      43,346	  0,00609981	-137,6
     43,3482	  0,00606021	-134,4
     43,3504	  0,00601731	-132,4
     43,3526	  0,00598365	-140,4
     43,3548	  0,00598933	-135,8
      43,357	  0,00594683	-130,7
     43,3592	  0,00595084	-137,2
     43,3614	  0,00590369	-137,1
     43,3636	   0,0059421	-131,4
     43,3658	  0,00592549	-133,9
      43,368	  0,00584845	-135,2
     43,3702	  0,00584219	-136,9
     43,3724	  0,00579944	-138,4
     43,3746	  0,00582891	-134,2
     43,3768	  0,00582855	-135,7
      43,379	   0,0057347	-136,1
     43,3812	  0,00577776	-131,9
     43,3834	  0,00574551	-134,8
     43,3856	  0,00568624	-137,2
     43,3878	  0,00571448	-141,5
       43,39	  0,00570148	-138,1
     43,3922	  0,00561489	-133,4
     43,3944	  0,00559602	-133,7
     43,3966	   0,0056577	-138,8
     43,3988	  0,00562584	-138,2
      43,401	   0,0055885	-134,7
     43,4032	  0,00560297	-133,2
     43,4054	  0,00555924	-134,6
     43,4076	  0,00555094	-135,3
     43,4098	  0,00549025	-130,4
      43,412	  0,00544079	-136,0
     43,4142	  0,00547981	-137,9
     43,4164	  0,00548617	-141,4
     43,4186	  0,00543402	-135,7
     43,4208	  0,00546272	-132,9
      43,423	  0,00542998	-138,7
     43,4252	  0,00543944	-138,8
     43,4274	  0,00540045	-134,1
     43,4296	  0,00533042	-132,6
     43,4318	  0,00535818	-137,3
      43,434	  0,00533645	-136,8
     43,4362	  0,00530813	-132,6
     43,4384	  0,00539078	-133,3
     43,4406	  0,00540988	-139,6
     43,4428	  0,00535584	-135,1
      43,445	  0,00526407	-136,0
     43,4472	  0,00526653	-130,1
     43,4494	  0,00518107	-128,9
     43,4516	  0,00525045	-131,8
     43,4538	    0,005323	-133,9
      43,456	   0,0052599	-126,8
     43,4582	  0,00518884	-130,0
     43,4604	  0,00512886	-135,5
     43,4626	  0,00510077	-131,8
     43,4648	  0,00505144	-130,6
      43,467	  0,00506051	-132,0
     43,4692	  0,00515784	-136,5
     43,4714	  0,00519089	-136,7
     43,4736	  0,00515778	-131,2
     43,4758	  0,00502448	-128,1
      43,478	  0,00503401	-129,4
     43,4802	  0,00498875	-134,7
     43,4824	  0,00502749	-132,7
     43,4846	  0,00491549	-129,7
     43,4868	   0,0049327	-133,0
      43,489	  0,00491568	-134,2
     43,4912	  0,00501323	-141,6
     43,4934	  0,00505472	-136,2
     43,4956	  0,00500708	-133,8
     43,4978	  0,00492776	-132,1
        43,5	   0,0049436	-134,3

