X-Data [Hz]	Piezo (M - Filtered) [mV]	Phase [Deg]	Piezo (M - Filtered) [mV]	Phase [Deg]	
	002: [07-09-24 18:23]		003: [07-09-24 18:26]	
        41,5	     2907,19	-69,8	     3180,56	-70,9
      41,502	     2967,07	-71,2	     3192,01	-71,7
     41,5039	     3012,74	-69,8	     3191,94	-71,5
     41,5059	     3101,02	-71,5	     3197,27	-71,6
     41,5078	     3142,89	-70,8	     3207,06	-70,7
     41,5098	     3174,85	-71,6	     3212,12	-72,2
     41,5117	     3179,93	-71,5	     3223,21	-71,4
     41,5137	     3196,32	-70,9	     3216,82	-71,7
     41,5156	     3206,46	-71,5	     3226,55	-72,1
     41,5176	     3213,05	-71,0	     3236,96	-70,9
     41,5196	     3224,63	-71,2	     3248,07	-70,8
     41,5215	     3226,54	-70,5	     3246,34	-71,1
     41,5235	     3243,31	-70,1	     3250,68	-71,2
     41,5254	     3252,16	-71,6	     3262,49	-71,6
     41,5274	     3250,71	-70,8	     3267,33	-70,1
     41,5293	     3261,11	-71,3	     3277,22	-71,4
     41,5313	     3261,64	-70,4	     3279,81	-70,2
     41,5332	     3276,58	-70,0	     3286,32	-71,4
     41,5352	     3278,34	-70,7	     3303,33	-71,7
     41,5371	     3278,25	-70,5	     3293,94	-70,3
     41,5391	     3287,27	-71,5	     3292,09	-71,2
     41,5411	     3282,92	-71,2	     3310,05	-70,0
      41,543	     3290,14	-70,6	     3323,25	-70,6
      41,545	     3309,88	-70,4	     3326,61	-70,2
     41,5469	     3317,22	-71,1	     3325,82	-71,1
     41,5489	     3319,38	-71,4	     3326,29	-70,0
     41,5508	     3327,47	-70,3	     3337,59	-69,6
     41,5528	     3330,93	-70,7	     3350,57	-70,3
     41,5547	     3338,96	-69,6	     3349,27	-70,1
     41,5567	     3345,03	-69,6	     3364,32	-70,1
     41,5587	     3351,44	-70,6	        3365	-70,4
     41,5606	     3355,28	-70,2	     3375,79	-70,0
     41,5626	     3366,71	-70,1	     3389,28	-70,2
     41,5645	      3362,3	-69,6	     3387,97	-69,3
     41,5665	     3373,22	-69,0	     3394,31	-70,8
     41,5684	     3383,81	-70,2	     3403,89	-70,7
     41,5704	     3391,59	-69,6	     3410,77	-70,0
     41,5723	     3402,79	-70,5	     3419,53	-70,5
     41,5743	     3403,14	-70,8	     3417,76	-69,1
     41,5762	     3402,14	-70,1	     3430,26	-69,1
     41,5782	     3419,33	-69,4	     3434,18	-69,7
     41,5802	     3426,46	-69,8	     3431,62	-69,6
     41,5821	      3421,6	-70,2	     3449,33	-70,0
     41,5841	     3434,27	-69,7	     3448,86	-69,3
      41,586	     3434,85	-70,1	      3456,1	-69,7
      41,588	     3435,76	-68,7	     3469,58	-69,6
     41,5899	     3443,27	-69,1	      3481,6	-69,7
     41,5919	     3457,73	-70,2	     3478,78	-70,4
     41,5938	     3467,18	-69,4	     3480,74	-68,8
     41,5958	     3476,67	-69,9	     3490,85	-69,4
     41,5978	     3487,02	-69,3	     3498,01	-68,7
     41,5997	     3494,01	-69,3	     3502,92	-68,9
     41,6017	      3498,4	-69,6	        3525	-69,9
     41,6036	     3503,19	-69,2	     3527,18	-69,2
     41,6056	     3506,49	-69,8	     3536,51	-69,2
     41,6075	     3508,84	-69,3	     3541,67	-68,7
     41,6095	      3522,6	-68,8	     3546,57	-69,1
     41,6114	     3526,49	-68,6	     3552,08	-69,5
     41,6134	     3534,52	-68,0	     3564,46	-69,1
     41,6153	     3546,89	-69,6	      3560,2	-69,6
     41,6173	     3545,48	-69,3	     3561,41	-68,1
     41,6193	      3551,1	-69,1	     3571,91	-68,5
     41,6212	     3567,93	-68,9	     3594,23	-68,0
     41,6232	     3570,31	-67,8	     3597,86	-68,2
     41,6251	     3580,22	-69,0	      3605,9	-69,4
     41,6271	     3591,72	-68,5	     3615,38	-69,2
      41,629	     3595,11	-68,9	     3623,07	-68,6
      41,631	     3601,06	-69,7	      3627,1	-68,6
     41,6329	     3595,67	-67,7	     3626,33	-68,2
     41,6349	     3602,75	-68,1	      3637,4	-68,8
     41,6369	     3612,92	-67,7	     3651,71	-68,2
     41,6388	     3622,63	-67,3	      3653,1	-68,5
     41,6408	     3632,59	-68,8	     3666,43	-68,2
     41,6427	     3646,07	-68,1	     3665,66	-67,6
     41,6447	     3653,33	-68,6	     3670,87	-68,5
     41,6466	     3650,18	-68,3	     3676,14	-68,1
     41,6486	     3660,63	-67,7	     3694,31	-68,6
     41,6505	     3665,97	-68,6	     3710,12	-68,8
     41,6525	     3670,52	-67,9	      3709,7	-67,6
     41,6544	     3675,43	-68,3	      3715,2	-68,1
     41,6564	     3692,86	-66,6	     3719,84	-66,8
     41,6584	     3700,64	-67,6	     3728,34	-67,6
     41,6603	     3712,29	-68,2	     3747,01	-67,5
     41,6623	     3711,66	-67,3	     3752,58	-67,4
     41,6642	     3730,86	-68,5	     3760,81	-67,6
     41,6662	     3739,37	-68,3	     3774,67	-67,6
     41,6681	     3740,72	-67,4	     3777,67	-67,1
     41,6701	     3745,95	-68,0	     3785,13	-67,5
      41,672	     3752,37	-66,7	     3783,39	-67,3
      41,674	     3757,81	-67,2	     3791,88	-67,6
      41,676	     3771,68	-67,4	     3807,23	-68,4
     41,6779	     3781,75	-67,4	     3811,57	-66,6
     41,6799	     3789,17	-67,1	     3814,31	-67,6
     41,6818	     3799,52	-66,2	     3830,42	-66,2
     41,6838	     3806,81	-67,5	     3831,25	-66,7
     41,6857	     3809,82	-67,3	     3841,84	-67,0
     41,6877	     3820,96	-67,8	     3850,64	-67,0
     41,6896	     3823,25	-67,5	        3867	-67,8
     41,6916	     3844,69	-66,0	     3872,91	-67,0
     41,6936	     3845,09	-67,0	     3882,38	-66,0
     41,6955	     3852,52	-66,3	     3889,59	-66,8
     41,6975	      3855,4	-66,1	     3900,53	-66,3
     41,6994	     3869,57	-66,7	     3909,67	-66,9
     41,7014	     3879,95	-66,7	     3913,21	-67,1
     41,7033	     3886,88	-66,2	     3913,66	-66,7
     41,7053	      3894,7	-66,8	     3918,51	-67,1
     41,7072	      3895,9	-66,1	     3940,96	-65,9
     41,7092	     3902,98	-66,1	     3963,96	-66,7
     41,7111	     3928,03	-65,9	     3965,38	-66,2
     41,7131	     3933,28	-66,0	     3970,23	-66,3
     41,7151	     3942,77	-66,5	     3969,42	-66,5
      41,717	     3948,78	-66,1	     3974,37	-65,6
      41,719	     3942,72	-66,3	     3981,72	-65,6
     41,7209	     3946,63	-65,7	      4001,2	-66,2
     41,7229	     3965,16	-65,8	     4017,27	-65,0
     41,7248	     3982,14	-65,8	     4010,76	-65,3
     41,7268	     4001,49	-65,4	     4027,34	-66,4
     41,7287	     4014,07	-65,8	     4040,15	-65,4
     41,7307	     4018,66	-66,8	     4049,91	-65,9
     41,7327	     4013,94	-64,8	     4053,83	-66,0
     41,7346	     4018,69	-65,2	     4052,54	-65,1
     41,7366	     4028,21	-65,6	     4063,86	-65,6
     41,7385	      4046,1	-66,1	     4083,98	-65,2
     41,7405	      4049,8	-66,0	     4096,38	-65,5
     41,7424	     4063,37	-64,7	     4104,46	-65,1
     41,7444	     4064,09	-65,4	      4112,7	-65,1
     41,7463	     4074,46	-65,5	     4119,86	-65,2
     41,7483	     4086,46	-64,7	     4134,16	-64,5
     41,7502	     4098,23	-64,7	     4144,06	-64,8
     41,7522	     4101,83	-65,1	     4156,11	-65,4
     41,7542	     4112,04	-64,7	     4174,05	-64,9
     41,7561	     4129,05	-65,0	      4173,4	-65,1
     41,7581	     4134,84	-64,5	     4187,14	-65,4
       41,76	     4148,32	-64,4	     4190,12	-63,8
      41,762	     4156,29	-64,5	     4190,05	-64,7
     41,7639	     4156,65	-64,3	     4200,26	-63,6
     41,7659	     4168,56	-64,2	     4216,43	-63,7
     41,7678	      4186,1	-63,9	     4239,27	-65,0
     41,7698	     4198,07	-64,3	     4244,74	-64,2
     41,7718	     4215,09	-64,1	     4251,81	-64,5
     41,7737	      4219,1	-63,4	     4267,31	-64,7
     41,7757	      4218,5	-64,4	      4267,2	-62,9
     41,7776	     4233,22	-64,1	     4271,34	-63,4
     41,7796	     4249,17	-63,9	     4281,69	-63,4
     41,7815	     4250,22	-64,5	     4293,96	-63,4
     41,7835	     4264,99	-63,0	     4314,84	-64,3
     41,7854	     4279,18	-63,3	     4327,78	-63,9
     41,7874	     4275,61	-63,3	     4341,78	-63,3
     41,7893	     4283,58	-62,5	      4341,2	-63,6
     41,7913	     4303,79	-63,5	      4345,2	-63,4
     41,7933	     4320,01	-63,5	      4357,5	-63,2
     41,7952	     4332,66	-63,4	     4369,95	-63,1
     41,7972	      4337,5	-63,5	     4390,61	-63,0
     41,7991	     4347,42	-62,6	     4407,02	-63,7
     41,8011	     4364,09	-62,3	     4408,41	-62,3
      41,803	     4378,97	-62,9	     4411,53	-62,8
      41,805	     4386,02	-62,5	     4432,91	-63,0
     41,8069	     4388,63	-63,4	     4449,43	-62,3
     41,8089	     4402,99	-63,3	     4467,59	-62,6
     41,8109	     4413,29	-62,3	     4474,75	-62,5
     41,8128	     4420,05	-62,8	     4477,08	-62,5
     41,8148	     4429,79	-61,8	     4486,81	-62,7
     41,8167	     4434,05	-61,6	     4500,64	-62,1
     41,8187	     4453,24	-62,7	      4503,3	-62,0
     41,8206	        4463	-62,9	     4512,34	-62,3
     41,8226	     4470,85	-62,8	     4527,33	-61,5
     41,8245	     4488,11	-61,8	     4545,56	-62,3
     41,8265	     4503,06	-61,3	     4561,47	-62,2
     41,8284	     4510,91	-61,9	     4563,05	-62,0
     41,8304	     4519,36	-61,6	     4577,22	-62,0
     41,8324	     4529,24	-62,0	     4592,08	-61,5
     41,8343	      4536,1	-62,2	     4599,21	-61,5
     41,8363	     4550,78	-61,9	     4612,14	-61,4
     41,8382	     4572,19	-62,1	     4627,39	-61,4
     41,8402	     4575,34	-62,3	      4639,1	-61,3
     41,8421	     4576,01	-60,5	     4640,98	-61,4
     41,8441	     4593,29	-60,7	     4653,17	-61,9
      41,846	     4607,22	-60,4	     4676,13	-61,2
      41,848	     4613,61	-60,5	     4689,91	-61,5
       41,85	     4635,18	-61,7	     4692,17	-60,4
     41,8519	     4637,03	-60,8	     4704,92	-60,4
     41,8539	     4649,91	-61,1	     4731,86	-60,8
     41,8558	     4670,71	-61,4	     4747,06	-60,4
     41,8578	      4680,2	-59,4	     4748,57	-60,2
     41,8597	      4688,1	-60,0	      4758,2	-60,4
     41,8617	     4705,26	-60,5	     4772,46	-60,6
     41,8636	     4718,96	-59,8	     4785,69	-60,8
     41,8656	     4736,66	-60,8	     4803,34	-60,6
     41,8675	     4744,86	-60,8	     4812,45	-59,8
     41,8695	     4752,83	-60,0	     4830,24	-60,0
     41,8715	     4766,38	-60,3	     4843,83	-59,9
     41,8734	     4783,91	-58,5	     4847,62	-59,5
     41,8754	     4795,64	-58,9	     4865,49	-60,5
     41,8773	     4803,72	-59,7	     4878,04	-59,8
     41,8793	     4814,56	-59,7	     4892,77	-59,7
     41,8812	     4832,95	-60,3	     4907,31	-59,7
     41,8832	     4838,41	-60,3	     4923,12	-58,7
     41,8851	     4855,79	-59,3	     4928,73	-58,3
     41,8871	     4870,84	-59,1	     4944,78	-58,7
     41,8891	     4875,23	-58,8	     4956,36	-58,5
      41,891	     4885,15	-58,2	     4978,53	-59,6
      41,893	     4903,03	-58,8	     4992,02	-59,3
     41,8949	     4917,15	-59,1	     5003,08	-58,5
     41,8969	     4939,41	-58,4	     5014,67	-59,0
     41,8988	     4938,51	-58,9	     5030,92	-59,0
     41,9008	     4954,82	-58,6	     5042,76	-57,6
     41,9027	     4969,89	-58,5	     5049,68	-58,0
     41,9047	     4990,68	-58,7	     5076,19	-57,8
     41,9066	     4999,11	-57,7	      5090,6	-58,4
     41,9086	     5003,41	-58,3	     5100,55	-58,3
     41,9106	     5011,18	-58,5	      5116,6	-57,8
     41,9125	     5027,18	-57,9	     5129,71	-58,1
     41,9145	     5046,78	-57,8	     5150,28	-57,9
     41,9164	     5071,19	-57,8	      5159,3	-57,3
     41,9184	     5080,37	-57,4	     5161,92	-57,0
     41,9203	     5096,63	-57,4	     5177,73	-57,1
     41,9223	     5106,14	-57,4	     5195,85	-56,7
     41,9242	     5120,92	-56,1	     5211,18	-57,6
     41,9262	     5128,37	-56,7	     5227,43	-57,5
     41,9282	     5145,99	-57,5	     5252,14	-56,8
     41,9301	      5159,4	-57,1	     5258,39	-56,6
     41,9321	     5179,96	-56,8	     5274,06	-57,1
      41,934	     5195,45	-57,0	     5289,48	-55,7
      41,936	     5210,38	-56,2	      5295,8	-56,4
     41,9379	     5227,18	-56,4	     5323,46	-56,9
     41,9399	     5239,24	-55,5	     5341,21	-55,0
     41,9418	     5256,76	-55,2	     5348,01	-55,1
     41,9438	     5269,61	-57,0	     5370,17	-56,5
     41,9457	     5271,73	-56,0	     5389,49	-55,9
     41,9477	     5289,67	-56,5	     5417,28	-56,6
     41,9497	     5308,59	-56,6	     5422,53	-55,6
     41,9516	     5314,16	-55,0	     5438,75	-54,9
     41,9536	     5335,33	-55,3	     5451,68	-55,6
     41,9555	     5356,11	-55,8	     5471,37	-54,5
     41,9575	     5378,39	-54,5	     5488,81	-54,3
     41,9594	     5386,56	-54,6	     5514,24	-55,4
     41,9614	     5395,96	-55,5	     5527,37	-55,0
     41,9633	     5411,29	-54,6	     5543,62	-54,4
     41,9653	     5436,89	-55,6	     5553,77	-54,9
     41,9673	      5450,3	-55,8	     5571,53	-54,4
     41,9692	     5473,59	-53,9	      5594,1	-54,1
     41,9712	     5482,07	-54,2	     5605,41	-54,3
     41,9731	     5498,63	-53,4	     5619,37	-53,6
     41,9751	     5505,81	-53,6	     5634,71	-53,8
      41,977	     5535,56	-54,4	     5646,91	-53,8
      41,979	     5555,62	-54,3	     5665,34	-53,1
     41,9809	     5571,54	-53,6	     5680,97	-53,2
     41,9829	     5583,65	-54,3	     5706,46	-54,2
     41,9848	     5601,59	-53,3	     5726,72	-53,3
     41,9868	      5621,1	-52,9	     5745,19	-53,1
     41,9888	     5630,99	-53,4	      5769,6	-53,4
     41,9907	     5651,77	-53,1	     5789,33	-53,4
     41,9927	     5659,31	-52,3	     5798,67	-52,1
     41,9946	     5685,67	-52,8	     5809,67	-52,4
     41,9966	     5700,33	-52,8	        5834	-52,3
     41,9985	     5722,44	-52,2	     5851,86	-52,6
     42,0005	     5735,77	-52,5	     5866,14	-52,6
     42,0024	     5752,98	-52,6	     5890,81	-52,0
     42,0044	      5766,5	-52,2	     5909,01	-51,9
     42,0064	     5785,96	-52,6	     5930,22	-52,1
     42,0083	     5798,72	-52,3	     5944,82	-51,7
     42,0103	     5815,13	-51,0	      5963,3	-51,0
     42,0122	     5828,17	-51,5	     5985,18	-50,9
     42,0142	     5843,98	-50,8	     6003,42	-51,1
     42,0161	     5862,48	-50,8	     6026,97	-50,9
     42,0181	     5895,11	-51,9	      6040,5	-50,7
       42,02	     5915,63	-51,2	      6064,6	-50,6
      42,022	     5936,65	-51,6	     6074,67	-50,0
     42,0239	     5942,44	-51,5	     6112,91	-51,4
     42,0259	     5970,66	-50,4	     6131,04	-50,6
     42,0279	     5989,95	-49,8	     6154,28	-49,4
     42,0298	     6008,03	-50,3	     6160,84	-49,7
     42,0318	      6025,7	-49,4	     6181,65	-48,6
     42,0337	     6043,43	-49,5	     6196,23	-48,5
     42,0357	     6054,91	-49,9	      6226,2	-49,7
     42,0376	     6072,56	-49,6	     6258,08	-48,9
     42,0396	      6101,1	-49,6	     6283,94	-48,7
     42,0415	     6112,97	-50,0	     6294,25	-49,4
     42,0435	     6132,16	-48,8	     6316,62	-48,3
     42,0455	     6147,07	-48,9	     6336,36	-48,2
     42,0474	     6173,46	-49,1	     6359,41	-48,2
     42,0494	     6190,96	-48,4	     6372,37	-48,4
     42,0513	     6207,64	-47,6	     6392,82	-47,2
     42,0533	     6227,12	-48,4	     6413,51	-47,4
     42,0552	     6245,23	-48,2	      6441,7	-46,7
     42,0572	     6270,09	-47,5	     6457,61	-46,8
     42,0591	        6303	-48,7	     6486,21	-46,9
     42,0611	     6321,41	-47,9	     6499,04	-47,0
      42,063	     6344,32	-47,4	     6532,17	-46,9
      42,065	     6361,02	-47,8	     6546,32	-47,3
      42,067	     6376,48	-47,8	     6574,43	-46,4
     42,0689	      6401,1	-46,5	     6582,86	-45,8
     42,0709	     6418,24	-46,7	     6602,04	-45,6
     42,0728	     6430,45	-46,1	     6626,41	-45,9
     42,0748	     6452,38	-45,9	     6653,92	-44,3
     42,0767	     6480,45	-46,8	      6665,1	-45,0
     42,0787	     6501,09	-46,2	      6694,3	-44,9
     42,0806	     6533,24	-45,9	     6713,54	-44,3
     42,0826	     6546,38	-46,1	     6733,89	-45,5
     42,0846	     6559,39	-46,5	     6764,55	-44,8
     42,0865	     6592,16	-44,9	     6791,03	-44,2
     42,0885	     6619,48	-45,1	     6821,76	-44,4
     42,0904	     6632,88	-44,7	     6842,39	-43,8
     42,0924	     6644,78	-44,5	     6853,68	-43,4
     42,0943	     6668,23	-44,5	     6881,39	-43,6
     42,0963	     6679,12	-44,0	     6908,52	-43,3
     42,0982	     6704,67	-43,5	     6942,18	-42,1
     42,1002	     6720,87	-43,1	      6949,1	-42,1
     42,1021	     6746,47	-44,4	      6975,2	-43,3
     42,1041	     6760,38	-43,5	     6993,56	-42,5
     42,1061	     6800,83	-43,5	     7024,25	-42,7
      42,108	     6820,15	-43,8	     7041,75	-42,5
       42,11	     6846,36	-42,9	      7063,4	-42,2
     42,1119	     6863,59	-42,5	     7092,18	-41,3
     42,1139	     6886,81	-42,4	     7111,87	-41,5
     42,1158	     6909,87	-41,9	     7141,87	-41,1
     42,1178	     6938,49	-41,6	     7165,04	-40,4
     42,1197	     6951,35	-41,6	     7182,14	-40,8
     42,1217	     6980,46	-41,6	     7215,27	-40,0
     42,1237	     6995,27	-40,6	     7227,64	-39,6
     42,1256	     7032,37	-41,9	     7258,63	-40,3
     42,1276	     7057,58	-41,4	     7287,77	-40,0
     42,1295	     7071,13	-40,7	     7318,39	-39,5
     42,1315	     7096,59	-41,2	     7333,76	-39,2
     42,1334	     7112,82	-39,9	     7357,42	-39,3
     42,1354	      7141,3	-39,6	     7383,37	-38,7
     42,1373	     7169,67	-39,4	     7406,97	-38,9
     42,1393	     7193,95	-39,3	     7434,78	-38,7
     42,1413	     7220,63	-38,6	     7453,65	-37,9
     42,1432	     7236,58	-38,5	     7479,31	-37,3
     42,1452	     7260,75	-39,0	     7500,19	-37,7
     42,1471	     7282,96	-38,5	     7542,14	-36,6
     42,1491	     7298,68	-38,1	     7573,73	-37,3
      42,151	     7337,58	-38,8	     7596,28	-37,3
      42,153	     7353,42	-38,7	     7619,47	-36,3
     42,1549	     7381,07	-38,0	     7648,94	-36,5
     42,1569	     7407,87	-38,0	     7681,28	-37,0
     42,1588	     7429,85	-37,2	     7709,36	-36,4
     42,1608	     7455,36	-36,7	     7728,57	-35,4
     42,1628	      7480,5	-36,4	     7740,76	-35,5
     42,1647	      7505,4	-36,4	     7768,94	-35,8
     42,1667	     7523,44	-35,3	     7797,79	-33,8
     42,1686	     7534,86	-35,1	      7819,4	-33,6
     42,1706	     7563,86	-35,9	     7838,09	-34,3
     42,1725	     7587,93	-35,3	     7858,77	-33,5
     42,1745	     7612,92	-35,2	     7879,73	-32,8
     42,1764	     7642,45	-35,2	     7906,08	-33,8
     42,1784	     7662,31	-34,6	     7926,54	-32,8
     42,1804	     7674,73	-34,4	     7947,17	-33,3
     42,1823	     7706,82	-34,5	      7970,2	-33,1
     42,1843	      7731,2	-34,4	     8001,78	-31,9
     42,1862	      7750,6	-32,8	     8026,19	-31,8
     42,1882	     7776,97	-32,9	     8046,66	-32,2
     42,1901	     7790,57	-32,7	     8067,21	-31,5
     42,1921	      7812,8	-32,7	     8085,17	-31,4
      42,194	     7838,05	-32,6	     8098,55	-30,8
      42,196	     7857,76	-32,4	     8112,63	-30,7
     42,1979	        7899	-31,9	     8132,48	-29,3
     42,1999	     7920,86	-31,0	      8157,5	-30,7
     42,2019	        7948	-31,9	      8171,2	-30,1
     42,2038	     7962,88	-31,9	     8195,66	-29,6
     42,2058	     7993,33	-30,9	     8233,77	-28,7
     42,2077	     8013,13	-31,2	     8260,76	-28,8
     42,2097	     8038,89	-30,1	     8282,03	-28,5
     42,2116	     8062,19	-30,0	     8299,62	-28,1
     42,2136	     8082,55	-29,8	     8315,27	-28,7
     42,2155	     8101,85	-30,0	     8341,64	-28,2
     42,2175	        8116	-28,8	     8375,21	-26,5
     42,2195	      8143,3	-28,3	     8393,89	-26,6
     42,2214	     8175,57	-28,7	     8417,58	-26,7
     42,2234	     8201,97	-28,3	     8437,61	-26,3
     42,2253	     8225,59	-27,5	        8467	-25,6
     42,2273	     8257,18	-27,0	     8487,73	-25,7
     42,2292	     8290,42	-27,6	      8529,2	-25,2
     42,2312	     8296,74	-26,7	     8560,08	-24,6
     42,2331	     8327,41	-27,5	     8585,87	-25,7
     42,2351	     8342,98	-27,4	     8613,95	-24,9
      42,237	     8365,01	-25,6	      8633,4	-24,2
      42,239	      8375,6	-26,1	     8646,33	-24,1
      42,241	      8405,4	-25,7	     8682,62	-24,2
     42,2429	      8425,9	-25,1	     8700,21	-23,7
     42,2449	     8444,94	-25,2	     8716,36	-22,9
     42,2468	     8465,89	-24,7	     8734,03	-23,1
     42,2488	      8486,1	-24,4	     8745,39	-21,8
     42,2507	     8515,28	-23,3	     8763,44	-21,8
     42,2527	     8540,63	-22,9	     8797,21	-21,9
     42,2546	     8557,81	-23,6	     8811,91	-21,3
     42,2566	     8559,77	-23,0	     8832,22	-20,3
     42,2586	     8585,37	-22,3	     8848,63	-20,4
     42,2605	     8612,19	-23,1	     8879,99	-20,7
     42,2625	     8631,17	-22,3	     8885,11	-20,0
     42,2644	     8662,53	-22,0	     8910,91	-20,1
     42,2664	     8692,31	-21,7	     8927,36	-19,9
     42,2683	     8717,72	-21,9	     8947,48	-19,4
     42,2703	      8731,2	-20,7	     8968,31	-18,8
     42,2722	     8739,29	-20,9	     8991,49	-19,2
     42,2742	     8755,67	-20,6	     9008,57	-18,6
     42,2761	     8777,18	-20,6	      9019,3	-17,6
     42,2781	     8799,74	-19,1	     9031,17	-17,9
     42,2801	     8820,81	-19,1	     9049,91	-17,4
      42,282	     8843,67	-19,1	     9065,92	-17,8
      42,284	     8856,24	-18,3	     9082,53	-15,9
     42,2859	     8885,71	-17,5	     9100,63	-16,0
     42,2879	     8895,73	-17,4	     9109,04	-16,1
     42,2898	     8911,27	-17,5	     9117,33	-15,0
     42,2918	     8924,03	-16,8	     9122,17	-15,3
     42,2937	     8954,42	-17,3	     9125,75	-15,4
     42,2957	     8961,21	-16,6	     9161,57	-14,6
     42,2977	     8979,98	-16,4	     9174,42	-14,0
     42,2996	     8981,91	-15,8	     9187,77	-14,9
     42,3016	     9002,33	-16,4	     9197,56	-14,3
     42,3035	     9013,58	-16,4	     9216,19	-13,5
     42,3055	     9037,66	-15,2	     9224,44	-13,5
     42,3074	     9055,74	-15,0	     9243,81	-13,7
     42,3094	     9063,36	-15,2	     9254,69	-13,4
     42,3113	     9082,77	-14,9	     9260,97	-12,4
     42,3133	     9097,99	-13,5	     9269,47	-12,5
     42,3153	     9105,61	-14,2	     9287,22	-11,8
     42,3172	     9126,76	-13,8	     9291,38	-11,6
     42,3192	     9144,28	-11,8	     9296,31	-10,8
     42,3211	     9156,35	-11,9	     9315,41	-11,2
     42,3231	     9164,15	-12,5	     9323,36	-9,6
      42,325	     9174,93	-11,4	     9330,38	-9,3
      42,327	     9187,93	-11,0	     9340,02	-10,0
     42,3289	     9202,17	-11,3	     9351,04	-9,4
     42,3309	     9207,68	-11,2	     9366,54	-8,9
     42,3328	     9226,63	-10,2	     9370,85	-8,1
     42,3348	     9234,32	-9,3	     9376,19	-9,2
     42,3368	     9256,32	-10,2	      9379,3	-8,6
     42,3387	     9263,84	-9,9	     9386,92	-7,8
     42,3407	     9277,85	-9,3	     9395,07	-7,4
     42,3426	     9293,14	-9,9	     9409,22	-8,3
     42,3446	     9299,91	-9,9	     9417,98	-7,5
     42,3465	     9314,85	-8,3	     9431,55	-7,2
     42,3485	     9331,72	-7,9	     9434,27	-7,4
     42,3504	     9343,97	-8,5	     9446,59	-6,3
     42,3524	     9347,51	-8,2	      9442,4	-6,0
     42,3544	     9349,95	-6,8	     9450,69	-5,9
     42,3563	     9366,74	-7,0	     9460,01	-6,0
     42,3583	     9368,74	-6,6	     9458,24	-4,3
     42,3602	     9371,46	-6,4	     9472,66	-4,2
     42,3622	     9386,95	-5,1	     9478,46	-4,7
     42,3641	     9400,22	-5,6	     9479,69	-4,0
     42,3661	     9402,63	-5,1	     9487,55	-4,0
      42,368	     9413,81	-4,2	     9481,22	-3,2
       42,37	     9430,12	-4,4	     9483,56	-3,2
     42,3719	     9438,79	-4,1	     9491,91	-2,5
     42,3739	     9443,06	-3,7	     9504,87	-2,2
     42,3759	     9440,63	-3,3	      9504,6	-2,3
     42,3778	     9449,07	-3,5	     9501,27	-2,1
     42,3798	     9448,88	-3,0	     9508,61	-1,8
     42,3817	     9464,94	-3,0	     9515,09	-1,1
     42,3837	     9466,35	-1,7	     9518,69	-1,7
     42,3856	     9477,27	-1,7	     9518,26	-1,8
     42,3876	     9466,87	-2,3	     9531,94	-0,4
     42,3895	     9478,11	-1,2	     9527,99	-0,5
     42,3915	     9485,82	-1,1	     9531,41	-0,9
     42,3935	     9479,95	-1,7	     9530,65	-0,4
     42,3954	     9487,59	-1,6	     9527,98	 0,3
     42,3974	     9487,75	-0,5	     9523,49	 0,5
     42,3993	     9492,43	-0,0	     9534,28	 0,5
     42,4013	     9496,46	-0,6	     9528,03	 1,0
     42,4032	     9497,89	-0,1	     9526,21	 1,4
     42,4052	     9502,96	 1,3	     9528,03	 1,7
     42,4071	     9501,29	 1,1	     9526,09	 2,7
     42,4091	     9492,65	 1,5	     9526,18	 3,0
      42,411	     9499,89	 1,8	     9523,12	 2,8
      42,413	     9498,19	 2,3	      9520,9	 2,3
      42,415	     9495,66	 2,1	     9513,75	 2,4
     42,4169	     9500,34	 3,1	     9512,42	 4,1
     42,4189	     9507,07	 3,0	     9512,49	 3,8
     42,4208	     9505,77	 3,1	     9515,47	 4,0
     42,4228	     9506,94	 3,4	     9506,47	 4,8
     42,4247	     9500,08	 3,9	     9499,75	 5,3
     42,4267	     9503,83	 4,6	      9507,3	 5,2
     42,4286	     9506,31	 4,3	     9510,26	 5,1
     42,4306	     9501,49	 4,4	     9497,85	 5,7
     42,4326	     9503,57	 5,2	      9489,3	 5,7
     42,4345	     9503,27	 5,9	     9487,74	 5,8
     42,4365	     9501,62	 6,2	     9490,86	 5,8
     42,4384	     9494,97	 5,5	     9480,87	 6,9
     42,4404	     9490,95	 5,9	     9478,86	 6,0
     42,4423	     9492,16	 6,6	     9473,76	 6,5
     42,4443	     9493,51	 7,5	     9475,19	 6,9
     42,4462	     9486,29	 6,1	     9477,93	 7,7
     42,4482	     9488,87	 6,8	     9469,02	 7,1
     42,4501	     9492,94	 7,7	     9464,65	 7,2
     42,4521	     9489,94	 6,7	     9468,41	 8,4
     42,4541	     9495,07	 7,3	     9459,38	 8,4
      42,456	     9477,27	 7,8	     9447,81	 8,3
      42,458	     9475,88	 8,2	     9454,21	 8,0
     42,4599	     9476,58	 8,4	     9450,44	 9,2
     42,4619	     9460,07	 8,2	     9438,81	 9,5
     42,4638	     9465,99	 8,8	     9428,35	 9,2
     42,4658	     9457,92	 9,4	     9422,18	 8,8
     42,4677	     9458,19	 9,5	     9420,84	10,7
     42,4697	     9452,73	 9,1	     9417,42	10,5
     42,4717	     9451,09	11,0	      9401,3	10,2
     42,4736	        9443	10,4	     9401,47	11,4
     42,4756	     9439,98	10,6	     9400,78	12,0
     42,4775	     9437,42	10,5	     9407,01	11,9
     42,4795	     9437,77	12,3	     9389,79	11,6
     42,4814	      9424,8	11,3	     9381,34	11,8
     42,4834	      9424,4	11,1	     9377,04	13,1
     42,4853	     9418,05	12,2	     9374,54	13,0
     42,4873	     9407,16	12,3	     9362,36	12,7
     42,4892	     9406,06	12,8	     9353,24	12,6
     42,4912	     9400,71	12,3	     9348,95	13,8
     42,4932	     9384,73	13,4	     9333,45	13,5
     42,4951	     9393,11	13,7	     9320,22	13,4
     42,4971	     9369,51	13,6	      9317,1	13,7
      42,499	     9360,45	13,9	     9318,58	14,7
      42,501	     9346,72	14,4	     9313,46	14,7
     42,5029	     9330,14	14,7	     9300,51	14,0
     42,5049	     9325,15	14,7	     9294,32	15,3
     42,5068	     9322,94	14,8	     9282,69	15,2
     42,5088	     9324,65	15,5	     9278,89	15,6
     42,5108	      9313,5	15,9	     9263,08	15,3
     42,5127	     9308,71	15,5	     9257,35	15,9
     42,5147	     9300,91	15,8	     9240,12	16,0
     42,5166	      9288,7	16,4	     9229,86	16,1
     42,5186	     9273,41	16,8	        9225	16,0
     42,5205	     9276,94	16,5	     9223,59	16,6
     42,5225	     9268,04	16,5	     9220,53	16,3
     42,5244	     9254,96	17,0	      9202,4	16,9
     42,5264	     9249,34	17,7	     9190,35	17,1
     42,5283	     9240,11	17,4	     9185,18	17,1
     42,5303	     9227,71	17,5	        9170	18,5
     42,5323	     9218,08	17,6	        9163	17,6
     42,5342	     9221,67	18,2	     9160,45	17,5
     42,5362	     9211,13	17,5	      9156,8	18,0
     42,5381	     9201,08	18,2	     9146,25	18,5
     42,5401	     9180,84	18,4	     9131,41	18,4
      42,542	     9174,04	19,4	     9123,84	18,7
      42,544	     9168,46	18,7	     9113,82	19,0
     42,5459	     9161,67	19,1	     9099,21	19,5
     42,5479	     9141,99	19,0	     9086,72	19,0
     42,5499	     9126,92	19,7	     9075,84	19,2
     42,5518	     9126,24	20,0	     9073,91	19,7
     42,5538	     9110,24	19,5	     9066,94	20,2
     42,5557	     9105,21	20,1	     9058,56	20,3
     42,5577	     9092,35	20,4	     9043,87	20,3
     42,5596	      9085,1	21,1	     9035,33	20,8
     42,5616	      9064,1	20,3	        9025	21,1
     42,5635	     9053,38	20,7	     9010,17	21,4
     42,5655	      9053,6	21,4	     8999,36	21,2
     42,5674	     9045,65	21,5	     8985,17	21,3
     42,5694	     9031,74	21,7	     8967,34	21,9
     42,5714	     9016,73	21,8	        8953	22,4
     42,5733	     9000,73	22,1	     8943,85	21,6
     42,5753	     8999,54	22,5	     8935,58	22,5
     42,5772	     8986,83	22,8	     8938,09	22,4
     42,5792	     8965,74	22,4	     8927,46	22,9
     42,5811	        8953	23,7	     8912,09	22,9
     42,5831	     8942,93	23,2	     8890,13	22,8
      42,585	     8917,64	23,1	     8876,87	22,7
      42,587	     8919,46	23,1	     8866,33	24,0
      42,589	     8905,38	23,8	     8849,31	23,5
     42,5909	     8899,49	24,3	     8839,07	23,6
     42,5929	     8889,88	24,3	     8828,51	23,8
     42,5948	     8871,04	24,5	     8821,94	25,0
     42,5968	     8861,15	24,4	     8816,67	24,8
     42,5987	     8848,35	25,0	     8794,42	24,6
     42,6007	     8831,58	25,5	     8784,47	24,8
     42,6026	     8803,29	24,8	     8767,42	25,7
     42,6046	        8798	24,9	     8760,87	25,1
     42,6065	     8785,17	25,8	     8745,18	25,6
     42,6085	     8787,11	26,0	     8735,15	25,4
     42,6105	     8770,54	25,7	     8724,42	25,6
     42,6124	     8754,58	25,7	      8709,1	26,4
     42,6144	     8736,71	26,8	      8695,8	25,8
     42,6163	     8731,94	26,6	     8687,38	26,0
     42,6183	     8714,14	26,7	      8679,5	26,5
     42,6202	     8706,99	26,7	     8667,43	27,4
     42,6222	     8698,66	27,7	        8654	26,7
     42,6241	     8685,98	27,8	     8636,56	27,1
     42,6261	     8667,25	27,3	     8635,37	27,1
     42,6281	     8655,02	27,0	     8619,19	28,1
       42,63	      8635,2	28,0	     8589,83	27,7
      42,632	     8615,79	28,1	     8584,23	27,9
     42,6339	     8615,36	28,0	     8575,87	27,4
     42,6359	     8603,34	28,0	     8562,82	28,4
     42,6378	     8585,01	28,6	     8543,71	28,7
     42,6398	      8580,4	29,1	     8519,55	28,5
     42,6417	     8560,63	29,2	     8509,07	27,8
     42,6437	      8551,7	28,6	     8496,87	29,5
     42,6456	     8531,97	29,7	     8482,58	29,3
     42,6476	     8524,04	29,3	     8466,92	29,0
     42,6496	     8516,84	30,3	     8453,61	28,9
     42,6515	     8497,07	30,2	     8449,51	29,8
     42,6535	     8474,25	29,9	     8441,91	29,8
     42,6554	     8472,73	30,0	     8424,08	29,9
     42,6574	     8457,84	30,4	     8414,18	30,0
     42,6593	     8445,87	30,9	     8399,04	30,4
     42,6613	     8432,68	30,7	     8383,22	30,5
     42,6632	     8413,87	30,8	     8368,56	31,0
     42,6652	     8400,46	31,5	     8353,13	30,7
     42,6672	     8380,03	31,6	     8342,68	30,8
     42,6691	     8373,17	31,6	     8334,24	31,1
     42,6711	     8345,67	31,4	     8305,93	31,2
      42,673	     8337,81	31,5	     8300,95	31,8
      42,675	     8325,02	32,1	     8283,14	31,2
     42,6769	     8317,03	32,2	        8261	31,4
     42,6789	     8295,52	32,1	     8255,11	32,7
     42,6808	     8286,27	32,2	     8239,77	32,8
     42,6828	     8277,62	32,9	     8224,12	31,7
     42,6847	     8266,58	33,4	      8206,1	32,4
     42,6867	      8246,1	32,5	     8201,97	33,0
     42,6887	     8231,65	32,5	     8186,11	33,2
     42,6906	     8224,56	33,8	     8176,12	32,6
     42,6926	     8209,48	34,1	     8161,48	32,9
     42,6945	     8186,36	33,8	     8153,42	33,4
     42,6965	     8176,25	34,1	     8137,44	33,8
     42,6984	     8156,06	33,7	     8118,61	33,8
     42,7004	     8142,17	34,6	     8097,75	34,2
     42,7023	     8127,07	34,1	     8081,28	34,1
     42,7043	     8123,27	34,6	     8075,42	34,2
     42,7063	     8103,45	34,5	     8062,73	35,0
     42,7082	     8095,93	35,0	     8044,45	35,5
     42,7102	     8084,17	35,0	     8020,84	34,7
     42,7121	     8072,52	35,6	     8013,17	35,1
     42,7141	        8054	35,7	     8003,62	35,8
      42,716	     8025,52	35,9	     7986,35	35,9
      42,718	     8015,22	36,1	     7965,71	35,7
     42,7199	     7998,79	36,0	     7955,77	35,6
     42,7219	     7991,87	36,3	     7947,03	36,2
     42,7239	     7980,58	36,3	      7932,8	37,0
     42,7258	     7966,46	36,5	     7912,04	36,8
     42,7278	     7945,81	37,3	     7900,97	37,1
     42,7297	     7935,08	37,4	      7890,3	36,5
     42,7317	     7914,48	37,4	     7885,67	37,4
     42,7336	     7903,86	37,5	     7876,47	37,0
     42,7356	     7893,46	37,8	     7854,03	37,6
     42,7375	     7879,71	37,8	     7847,42	36,8
     42,7395	     7863,39	38,3	     7820,29	37,6
     42,7414	     7841,71	37,9	     7804,98	37,1
     42,7434	     7835,04	37,9	     7790,93	38,5
     42,7454	     7821,83	39,1	      7770,2	38,1
     42,7473	     7804,94	38,7	     7771,55	37,8
     42,7493	     7778,36	38,6	     7762,46	37,4
     42,7512	     7769,23	38,4	      7738,4	38,7
     42,7532	     7765,36	39,2	     7730,05	38,2
     42,7551	     7749,52	39,8	     7706,18	38,3
     42,7571	     7736,61	39,1	     7698,16	38,3
      42,759	     7716,49	39,3	     7687,55	38,5
      42,761	     7701,73	38,6	     7669,71	38,7
      42,763	     7685,78	40,1	     7654,12	39,0
     42,7649	     7675,35	39,8	     7641,38	39,0
     42,7669	     7657,68	39,7	     7633,23	38,6
     42,7688	     7635,46	39,5	     7622,52	39,1
     42,7708	     7627,45	39,5	     7603,56	39,6
     42,7727	     7608,84	40,5	     7583,43	39,8
     42,7747	     7604,97	40,3	     7571,56	39,2
     42,7766	     7583,97	39,7	     7555,64	40,1
     42,7786	     7577,04	39,9	     7541,49	39,8
     42,7805	     7561,63	40,5	     7520,41	40,5
     42,7825	     7552,31	40,4	     7512,49	40,8
     42,7845	     7532,06	41,0	     7499,29	40,8
     42,7864	     7522,26	40,9	     7480,97	40,5
     42,7884	     7505,88	40,7	     7465,99	41,1
     42,7903	     7493,93	41,0	     7449,31	41,5
     42,7923	     7486,51	41,6	     7449,42	42,0
     42,7942	     7467,88	41,8	     7434,61	41,2
     42,7962	     7445,78	41,3	     7426,45	41,4
     42,7981	     7425,14	41,4	     7404,82	41,9
     42,8001	     7412,15	42,1	     7396,92	42,4
     42,8021	     7402,92	42,7	     7377,47	42,5
      42,804	     7394,61	41,6	      7355,4	42,1
      42,806	     7381,22	42,0	     7340,03	42,1
     42,8079	     7361,81	42,6	     7327,78	43,3
     42,8099	     7351,28	43,5	     7307,17	42,7
     42,8118	     7332,18	43,4	      7299,4	42,8
     42,8138	     7321,06	43,5	     7278,69	42,8
     42,8157	     7303,89	43,6	     7264,49	41,8
     42,8177	     7296,54	43,5	     7244,38	43,4
     42,8196	     7286,32	44,2	     7237,84	43,3
     42,8216	     7265,26	44,4	     7231,71	43,3
     42,8236	     7241,62	43,6	     7218,38	43,2
     42,8255	     7228,17	43,9	     7212,58	42,5
     42,8275	     7209,04	44,7	     7197,43	42,7
     42,8294	     7185,12	44,4	     7181,35	43,8
     42,8314	     7173,54	44,6	     7166,49	44,2
     42,8333	     7170,43	44,3	     7142,36	43,2
     42,8353	     7163,43	44,2	     7125,48	43,5
     42,8372	     7146,13	44,6	     7106,17	44,0
     42,8392	        7139	44,3	     7096,87	44,6
     42,8412	     7123,06	44,7	     7083,76	44,3
     42,8431	     7093,08	45,0	     7069,38	44,8
     42,8451	     7082,31	44,2	     7047,92	44,4
      42,847	     7075,99	44,8	     7035,54	44,9
      42,849	     7068,05	45,1	     7020,54	46,0
     42,8509	     7052,77	45,3	     7016,21	46,0
     42,8529	     7038,83	45,3	     6999,61	45,8
     42,8548	      7024,8	44,9	     6979,13	45,3
     42,8568	     7005,59	45,0	     6966,58	45,1
     42,8587	     6997,24	46,1	     6955,97	46,4
     42,8607	     6989,68	46,7	     6949,68	46,0
     42,8627	     6971,42	45,8	     6932,75	46,0
     42,8646	     6952,37	46,0	     6923,87	45,4
     42,8666	     6934,02	46,6	      6906,4	46,1
     42,8685	     6914,39	47,2	     6900,09	46,8
     42,8705	     6901,18	47,0	     6893,69	46,6
     42,8724	     6888,71	47,3	     6866,43	45,8
     42,8744	     6876,67	47,2	     6851,25	46,3
     42,8763	     6858,11	46,9	     6838,72	45,9
     42,8783	     6854,99	48,1	      6823,4	45,9
     42,8803	     6840,81	47,7	     6806,24	46,9
     42,8822	     6827,99	47,9	     6793,94	47,2
     42,8842	     6816,04	47,2	     6779,92	46,6
     42,8861	     6798,26	47,8	     6768,46	47,3
     42,8881	     6787,02	47,6	     6751,18	47,0
       42,89	     6776,41	47,0	     6741,07	47,9
      42,892	     6763,16	48,2	     6734,61	47,7
     42,8939	     6749,28	48,0	      6714,8	47,9
     42,8959	      6725,7	47,4	     6690,66	47,7
     42,8979	     6706,51	48,2	     6684,54	47,9
     42,8998	     6698,63	47,9	     6671,55	48,7
     42,9018	     6688,52	48,2	      6663,7	49,4
     42,9037	     6673,11	48,7	     6652,24	48,6
     42,9057	     6656,45	47,6	     6650,67	48,1
     42,9076	     6647,86	48,6	     6627,99	48,3
     42,9096	     6633,05	49,0	     6613,81	48,0
     42,9115	     6628,55	49,5	     6599,27	48,6
     42,9135	     6609,77	50,2	     6581,41	49,0
     42,9154	     6589,08	49,2	     6578,92	48,9
     42,9174	     6569,69	49,4	     6568,65	48,5
     42,9194	     6556,59	49,9	     6555,44	48,7
     42,9213	     6544,77	49,6	      6549,9	49,1
     42,9233	     6538,68	50,7	      6534,4	49,9
     42,9252	     6523,73	49,5	     6520,87	49,3
     42,9272	     6507,17	49,7	     6513,48	49,5
     42,9291	     6491,04	50,6	     6495,06	49,6
     42,9311	      6479,4	49,7	     6479,08	49,8
      42,933	     6455,62	50,7	     6463,46	49,9
      42,935	     6454,38	49,6	     6453,44	50,6
      42,937	     6452,17	50,2	     6429,19	49,8
     42,9389	      6430,8	50,0	     6424,69	50,1
     42,9409	     6421,51	50,1	     6417,23	50,9
     42,9428	     6407,38	50,9	      6406,8	50,1
     42,9448	     6397,79	51,3	     6396,94	51,3
     42,9467	     6384,35	50,3	     6380,44	50,3
     42,9487	     6368,18	50,7	     6367,01	50,6
     42,9506	     6350,96	51,4	     6361,38	49,8
     42,9526	     6335,22	51,6	     6353,96	50,8
     42,9545	     6330,48	51,9	     6340,68	50,6
     42,9565	     6319,35	51,9	     6326,92	51,4
     42,9585	     6299,93	51,4	     6313,01	51,0
     42,9604	     6291,69	51,5	     6296,88	51,0
     42,9624	     6277,33	52,1	     6278,03	50,8
     42,9643	     6270,27	52,0	     6271,01	51,6
     42,9663	     6256,67	52,4	      6256,6	52,1
     42,9682	     6242,66	51,8	     6252,04	52,3
     42,9702	     6223,36	51,4	     6234,22	51,9
     42,9721	     6222,91	51,4	     6223,65	51,9
     42,9741	        6215	52,4	     6204,71	52,1
     42,9761	     6199,03	52,3	     6186,06	51,9
      42,978	     6180,94	52,0	     6174,05	52,5
       42,98	     6162,24	52,1	     6162,68	52,2
     42,9819	     6153,22	52,7	     6153,72	52,1
     42,9839	     6134,34	52,5	     6141,67	51,9
     42,9858	     6124,37	53,0	     6127,43	52,0
     42,9878	     6111,69	53,3	     6114,73	52,2
     42,9897	     6104,08	53,1	     6112,77	52,6
     42,9917	     6089,48	53,2	     6107,51	52,8
     42,9936	     6065,92	53,2	     6085,13	52,6
     42,9956	     6061,66	53,3	     6072,61	52,7
     42,9976	     6056,84	54,0	     6071,19	52,8
     42,9995	     6046,82	53,5	     6061,67	54,2
     43,0015	     6021,19	53,3	     6042,21	53,9
     43,0034	     6021,98	53,2	     6037,75	53,8
     43,0054	     6001,14	52,7	     6014,92	53,6
     43,0073	        5993	53,8	     6011,75	53,3
     43,0093	      5989,5	53,8	     5998,38	54,1
     43,0112	     5976,85	53,8	     5976,07	53,4
     43,0132	     5967,15	54,2	     5971,22	54,0
     43,0152	     5943,09	53,8	     5963,55	53,8
     43,0171	     5930,33	54,3	     5950,36	53,5
     43,0191	      5919,6	54,8	     5939,77	53,8
      43,021	      5910,8	55,0	     5923,91	54,0
      43,023	     5903,96	55,0	     5909,26	54,5
     43,0249	      5885,6	54,9	     5897,29	54,4
     43,0269	     5877,48	54,3	     5886,93	55,5
     43,0288	      5861,2	54,5	     5864,38	54,5
     43,0308	        5852	53,9	     5855,99	54,7
     43,0327	     5841,97	54,5	     5848,88	55,1
     43,0347	     5836,33	55,0	     5835,41	55,1
     43,0367	     5821,06	54,8	     5820,06	55,6
     43,0386	     5800,76	54,2	      5820,7	55,0
     43,0406	     5795,63	54,6	     5814,75	54,9
     43,0425	     5786,39	55,2	     5795,58	54,6
     43,0445	     5780,88	56,2	      5772,3	54,6
     43,0464	     5754,59	56,3	     5757,97	55,0
     43,0484	     5744,65	56,1	     5751,92	55,3
     43,0503	     5729,25	56,0	     5747,13	55,3
     43,0523	     5721,58	55,9	     5731,63	55,8
     43,0543	     5711,69	54,9	     5713,61	55,2
     43,0562	     5702,17	55,9	      5697,9	55,8
     43,0582	     5698,33	56,3	     5693,88	55,7
     43,0601	     5684,68	56,0	     5677,46	56,2
     43,0621	     5678,06	55,8	     5674,17	56,2
      43,064	     5659,96	55,6	     5660,89	55,9
      43,066	     5653,85	56,1	     5645,36	55,6
     43,0679	     5634,45	56,9	     5637,74	55,6
     43,0699	     5618,96	56,8	      5632,5	55,7
     43,0718	     5611,25	56,5	     5617,66	56,2
     43,0738	     5599,05	57,1	     5610,38	56,8
     43,0758	     5586,08	56,7	     5589,65	56,3
     43,0777	     5573,23	56,7	     5579,53	56,8
     43,0797	     5564,32	56,8	     5565,92	56,3
     43,0816	      5540,3	57,5	     5563,31	57,1
     43,0836	     5536,26	57,2	     5559,18	57,4
     43,0855	     5524,05	56,6	     5562,54	57,2
     43,0875	     5526,43	56,6	     5541,19	57,1
     43,0894	     5516,06	56,4	      5525,8	56,5
     43,0914	     5504,08	57,3	     5505,38	56,3
     43,0934	     5490,34	57,8	     5484,86	56,3
     43,0953	     5473,12	58,2	      5483,9	57,3
     43,0973	     5463,87	58,7	     5469,59	56,9
     43,0992	      5450,3	57,7	     5461,32	57,9
     43,1012	     5441,51	57,4	      5441,5	57,6
     43,1031	     5431,19	57,8	     5431,07	58,0
     43,1051	      5421,5	57,6	     5415,51	57,9
      43,107	     5405,45	58,0	     5415,53	57,3
      43,109	     5402,47	57,8	     5413,11	58,1
     43,1109	     5383,99	57,3	     5407,33	58,2
     43,1129	     5389,24	57,7	     5402,31	58,0
     43,1149	     5380,35	58,2	     5373,09	57,1
     43,1168	     5371,69	58,1	     5355,61	57,4
     43,1188	      5351,4	58,7	     5345,72	57,4
     43,1207	     5340,53	59,7	     5339,08	57,6
     43,1227	     5323,44	59,3	     5333,93	58,1
     43,1246	     5314,52	58,8	     5318,94	58,5
     43,1266	     5311,09	58,7	        5309	58,8
     43,1285	     5290,75	58,4	     5300,49	58,6
     43,1305	     5281,93	58,9	     5298,25	58,4
     43,1325	     5283,79	58,9	     5274,83	58,3
     43,1344	     5276,86	59,1	     5264,22	59,3
     43,1364	        5259	59,2	     5258,54	58,8
     43,1383	     5241,34	57,9	      5244,9	58,7
     43,1403	     5229,95	58,9	     5238,92	59,0
     43,1422	     5212,14	59,3	     5222,17	57,7
     43,1442	     5213,21	59,7	     5209,09	58,4
     43,1461	     5202,71	59,5	     5198,36	59,5
     43,1481	     5195,65	60,2	     5188,72	59,2
       43,15	     5180,38	59,4	     5185,45	59,2
      43,152	     5175,97	59,1	     5176,75	60,2
      43,154	     5164,26	59,3	     5161,43	59,6
     43,1559	     5152,23	58,8	     5145,83	59,2
     43,1579	     5147,33	59,4	     5143,92	59,0
     43,1598	     5136,85	60,0	     5137,65	58,9
     43,1618	     5124,27	60,5	     5122,96	58,8
     43,1637	     5104,67	60,3	     5120,79	59,8
     43,1657	     5091,17	60,5	     5099,53	59,6
     43,1676	     5078,69	60,1	     5084,99	60,1
     43,1696	     5070,18	59,5	     5076,71	60,5
     43,1716	     5063,62	60,6	     5065,51	59,9
     43,1735	     5056,24	60,2	     5064,94	60,0
     43,1755	      5051,3	60,4	     5045,31	60,4
     43,1774	     5047,36	60,1	      5039,3	60,1
     43,1794	     5027,98	59,6	     5026,26	60,5
     43,1813	     5028,12	60,4	     5017,72	60,2
     43,1833	     5014,06	60,0	     4997,93	59,9
     43,1852	     5004,48	60,9	     4993,29	60,8
     43,1872	     4990,94	61,2	      4984,7	60,1
     43,1891	     4976,26	61,8	     4978,33	60,6
     43,1911	     4960,44	61,3	      4971,4	61,0
     43,1931	     4950,06	61,0	     4968,76	61,1
      43,195	     4945,69	60,9	     4957,77	61,4
      43,197	     4944,92	60,2	      4955,1	60,7
     43,1989	     4934,24	60,9	      4940,4	60,3
     43,2009	     4923,88	61,1	     4921,74	60,2
     43,2028	     4912,59	61,4	     4913,43	60,6
     43,2048	     4905,71	61,7	     4899,26	60,6
     43,2067	     4900,74	62,1	     4897,21	61,1
     43,2087	     4893,01	61,6	     4889,75	61,8
     43,2107	     4876,13	61,1	      4878,7	61,4
     43,2126	     4859,42	61,5	     4876,48	61,7
     43,2146	      4855,9	60,7	     4872,48	60,9
     43,2165	     4843,37	61,4	     4846,78	60,9
     43,2185	     4842,24	61,6	     4839,68	60,5
     43,2204	     4837,79	61,5	     4817,43	60,8
     43,2224	     4835,64	62,1	     4803,94	61,3
     43,2243	     4819,92	61,7	     4800,28	61,9
     43,2263	     4806,48	61,8	      4790,2	61,4
     43,2282	     4795,44	62,5	     4788,01	62,2
     43,2302	     4775,12	62,2	     4778,57	62,0
     43,2322	     4762,84	62,8	     4777,27	61,4
     43,2341	     4756,28	62,2	     4772,66	62,2
     43,2361	     4741,26	61,8	     4761,55	61,5
      43,238	     4744,63	61,9	     4744,34	61,9
       43,24	     4735,22	61,9	     4734,05	61,7
     43,2419	      4727,8	62,2	     4724,08	62,6
     43,2439	     4725,25	62,8	     4704,24	62,0
     43,2458	     4714,06	62,9	     4700,72	62,6
     43,2478	     4693,64	63,7	     4700,15	62,3
     43,2498	     4676,57	63,1	     4693,05	62,2
     43,2517	     4660,68	62,3	     4689,79	62,7
     43,2537	      4659,2	62,3	     4681,47	62,3
     43,2556	     4650,25	62,3	     4680,45	62,9
     43,2576	     4657,36	62,2	     4660,03	62,8
     43,2595	     4647,57	62,7	     4642,68	62,1
     43,2615	     4639,48	63,6	     4639,17	62,4
     43,2634	     4636,65	63,3	     4623,32	62,3
     43,2654	      4625,7	64,2	     4620,03	62,8
     43,2673	     4610,47	63,0	     4608,74	63,2
     43,2693	     4599,25	63,0	     4602,14	63,2
     43,2713	     4593,06	63,0	     4598,22	63,4
     43,2732	     4585,92	62,3	     4593,41	63,0
     43,2752	     4582,12	63,3	     4575,01	62,6
     43,2771	      4576,6	63,8	     4569,98	63,1
     43,2791	     4570,64	64,0	     4552,84	63,2
      43,281	     4548,18	63,8	     4546,06	63,0
      43,283	     4541,72	64,0	     4541,89	63,7
     43,2849	     4535,05	63,5	     4536,15	63,4
     43,2869	     4532,96	63,0	     4522,29	63,4
     43,2889	     4530,23	63,6	     4511,92	63,5
     43,2908	     4516,31	63,3	        4505	63,2
     43,2928	     4497,89	64,1	     4507,19	63,5
     43,2947	     4484,47	64,0	     4495,73	62,6
     43,2967	     4466,47	63,6	      4486,4	63,5
     43,2986	      4471,4	64,4	     4466,49	63,8
     43,3006	     4461,93	63,8	      4471,4	63,6
     43,3025	     4457,12	63,7	     4461,79	64,2
     43,3045	     4456,96	64,2	     4444,41	63,8
     43,3064	     4451,29	63,4	     4441,86	63,8
     43,3084	     4427,82	64,3	     4430,83	63,6
     43,3104	     4421,04	64,0	     4422,66	64,2
     43,3123	     4419,43	64,7	     4409,95	64,0
     43,3143	     4404,98	64,7	     4406,33	63,6
     43,3162	      4402,2	64,1	     4385,23	64,6
     43,3182	     4399,24	64,1	     4387,05	63,8
     43,3201	     4392,34	64,2	     4390,37	64,5
     43,3221	      4373,8	64,4	     4388,65	64,2
      43,324	     4361,41	63,9	     4376,54	63,7
      43,326	     4357,43	64,5	     4354,77	64,6
      43,328	      4355,6	65,5	     4336,95	64,0
     43,3299	     4341,57	65,1	     4331,67	64,8
     43,3319	     4336,79	65,5	     4321,69	64,7
     43,3338	     4329,03	64,6	     4327,88	64,6
     43,3358	     4323,47	64,4	     4323,49	64,9
     43,3377	     4309,37	64,8	     4315,79	64,4
     43,3397	     4308,06	64,5	     4309,86	64,6
     43,3416	     4289,88	65,0	     4294,19	64,8
     43,3436	     4282,19	64,9	     4270,35	64,6
     43,3456	     4281,55	64,7	     4276,23	65,5
     43,3475	      4274,1	65,8	     4276,59	65,1
     43,3495	     4261,82	66,1	     4276,89	64,7
     43,3514	     4252,59	65,0	     4269,78	65,2
     43,3534	     4242,59	64,4	     4256,56	64,7
     43,3553	     4233,19	64,5	     4237,84	64,7
     43,3573	     4232,74	64,9	     4229,23	65,2
     43,3592	     4224,29	65,2	        4217	65,3
     43,3612	     4228,27	65,5	     4214,32	66,2
     43,3631	      4216,8	66,2	      4199,2	65,2
     43,3651	     4208,11	66,4	     4199,73	65,2
     43,3671	      4191,8	66,1	     4202,85	65,2
      43,369	      4178,9	65,5	     4187,75	64,5
      43,371	     4174,45	65,4	     4178,61	65,1
     43,3729	     4172,97	65,4	     4169,53	65,2
     43,3749	     4158,23	65,6	     4155,05	66,0
     43,3768	     4160,05	65,5	     4156,81	66,2
     43,3788	     4160,34	66,3	      4158,8	66,0
     43,3807	     4141,85	66,9	     4148,28	65,4
     43,3827	     4126,64	66,4	     4140,61	65,4
     43,3847	     4117,66	65,7	      4121,5	64,6
     43,3866	      4100,6	65,7	     4106,29	65,4
     43,3886	      4101,2	65,2	     4109,87	65,9
     43,3905	     4090,78	65,3	        4112	66,4
     43,3925	      4093,9	66,2	     4107,44	66,3
     43,3944	     4087,79	66,7	     4084,07	66,6
     43,3964	     4082,82	66,6	     4077,24	66,4
     43,3983	     4083,77	67,3	     4064,49	66,1
     43,4003	     4061,06	66,6	     4058,71	65,5
     43,4022	     4050,19	66,0	     4055,62	66,2
     43,4042	     4051,38	66,4	     4046,34	65,9
     43,4062	        4048	65,5	     4049,74	66,2
     43,4081	     4050,01	66,0	     4036,66	66,5
     43,4101	     4045,41	66,6	     4032,43	65,8
      43,412	     4030,85	66,9	     4029,33	66,3
      43,414	     4019,87	67,1	     4021,49	66,4
     43,4159	     4008,22	67,0	     4006,06	66,0
     43,4179	     3998,18	66,3	     3995,37	66,0
     43,4198	     3997,29	66,4	      3988,2	66,6
     43,4218	     4001,26	67,1	     3975,72	66,5
     43,4238	     3992,28	67,1	        3981	66,9
     43,4257	     3976,53	67,1	      3981,1	66,1
     43,4277	     3970,92	66,5	     3972,72	66,4
     43,4296	     3962,76	67,2	     3962,21	66,5
     43,4316	     3947,19	66,1	     3955,34	66,8
     43,4335	        3936	67,0	     3945,49	67,5
     43,4355	     3940,51	66,8	     3923,55	67,0
     43,4374	     3937,82	67,2	     3917,45	67,9
     43,4394	     3931,44	68,1	     3916,28	67,2
     43,4413	     3918,04	67,7	     3912,94	66,6
     43,4433	     3898,71	67,5	     3895,51	66,0
     43,4453	     3894,33	66,6	     3892,74	66,6
     43,4472	     3898,76	66,7	     3902,46	67,4
     43,4492	     3896,34	67,0	     3901,06	67,1
     43,4511	     3888,49	67,4	     3880,36	67,6
     43,4531	      3871,4	67,4	     3872,16	67,9
      43,455	     3875,76	68,4	     3862,17	67,9
      43,457	     3860,86	67,6	     3863,57	67,6
     43,4589	     3847,35	67,8	     3861,99	67,0
     43,4609	      3852,9	67,3	     3848,44	67,8
     43,4629	     3855,87	67,2	     3833,17	67,4
     43,4648	     3844,99	68,4	     3838,92	67,9
     43,4668	     3829,71	67,5	     3836,37	67,5
     43,4687	     3820,57	67,7	     3830,55	66,8
     43,4707	     3824,61	68,1	     3817,66	67,1
     43,4726	     3805,17	67,4	      3797,7	67,2
     43,4746	     3805,63	68,0	     3792,01	67,5
     43,4765	     3803,01	67,5	     3790,36	68,6
     43,4785	     3796,57	68,1	     3794,52	68,3
     43,4804	     3790,94	68,5	     3790,73	67,9
     43,4824	     3786,68	68,8	     3781,46	67,4
     43,4844	     3772,64	68,5	     3760,22	67,1
     43,4863	     3752,74	68,0	     3757,98	67,2
     43,4883	     3747,44	67,6	     3751,06	67,8
     43,4902	      3753,7	67,7	     3749,68	67,7
     43,4922	      3748,9	67,8	     3743,25	68,2
     43,4941	     3738,65	68,1	     3737,22	67,4
     43,4961	     3738,55	68,7	      3727,8	68,4
      43,498	     3727,08	69,2	     3716,85	67,9
        43,5	     3718,25	69,1	     3720,73	67,8

