X-Data [Hz]	Piezo (M - Filtered) [mV]	Phase [Deg]	Piezo (M - Filtered) [mV]	Phase [Deg]	
	002: [07-10-24 07:47]		003: [07-10-24 07:50]	
        41,5	     49,6215	-105,6	     55,2248	-102,6
      41,502	     49,8958	-101,9	     54,9533	-103,8
     41,5039	     51,5745	-102,4	     54,8193	-102,8
     41,5059	     53,1057	-101,9	     55,2881	-104,2
     41,5078	     53,6917	-102,2	     54,9443	-102,2
     41,5098	     54,0599	-104,0	     55,5909	-104,7
     41,5117	     54,0258	-102,9	     55,3336	-103,3
     41,5137	     54,6213	-104,5	     55,9045	-104,7
     41,5156	     54,5104	-103,0	     56,1267	-104,1
     41,5176	     55,1151	-104,9	     55,8925	-103,3
     41,5196	     54,9468	-103,9	     56,2339	-104,1
     41,5215	     55,4263	-103,8	     55,6944	-102,7
     41,5235	     55,3457	-104,4	      55,809	-103,5
     41,5254	     55,2725	-103,0	     56,0972	-102,4
     41,5274	     55,6753	-104,3	     56,0976	-102,0
     41,5293	     55,6002	-102,2	     56,5211	-103,6
     41,5313	     55,9585	-103,3	     56,2979	-101,9
     41,5332	     55,6266	-102,7	     56,9362	-104,6
     41,5352	     55,5638	-102,2	      56,854	-103,3
     41,5371	     56,1287	-103,5	     57,2398	-104,1
     41,5391	     56,1475	-102,6	     57,1816	-103,1
     41,5411	     56,5103	-104,4	     57,2703	-103,6
      41,543	     56,1896	-102,5	     57,4339	-104,4
      41,545	     56,5666	-104,3	     56,9252	-101,9
     41,5469	     56,3631	-103,4	      57,365	-103,5
     41,5489	     56,8743	-104,1	     57,5797	-101,8
     41,5508	     56,9788	-104,2	      57,699	-102,2
     41,5528	     57,1379	-102,4	     58,1183	-103,1
     41,5547	     57,2536	-103,7	     57,8918	-103,4
     41,5567	     56,8966	-102,2	     58,2285	-104,0
     41,5587	     57,1545	-102,9	     58,0155	-102,1
     41,5606	     57,1742	-102,2	     58,4222	-103,2
     41,5626	     57,3706	-101,9	     58,3709	-101,7
     41,5645	     57,7531	-103,3	     58,5219	-102,4
     41,5665	     57,5083	-101,8	     58,6037	-101,7
     41,5684	     57,8999	-102,3	     58,5221	-101,5
     41,5704	     57,8264	-102,8	     58,9041	-102,8
     41,5723	     58,3403	-103,2	      59,016	-101,7
     41,5743	     58,4381	-103,6	      59,078	-102,1
     41,5762	     58,5148	-102,5	     59,4044	-102,4
     41,5782	     58,7865	-103,7	     59,4026	-101,5
     41,5802	      58,399	-101,7	     60,1369	-103,2
     41,5821	     58,5423	-102,0	      59,703	-101,6
     41,5841	     58,7116	-102,5	     59,9932	-102,9
      41,586	     58,7834	-101,2	     59,8881	-101,6
      41,588	     59,5555	-103,7	     59,9503	-101,5
     41,5899	     59,3634	-102,5	     60,6411	-102,3
     41,5919	     59,6725	-103,3	     60,2473	-101,3
     41,5938	     59,6239	-103,1	     60,7783	-103,4
     41,5958	     59,8343	-102,8	     60,9717	-102,8
     41,5978	     59,9996	-103,4	     60,8116	-102,2
     41,5997	      59,857	-101,8	     61,0381	-101,4
     41,6017	     60,3465	-103,3	     61,0833	-100,9
     41,6036	     60,0246	-100,9	     61,3567	-103,1
     41,6056	     60,3206	-101,9	     61,2196	-100,5
     41,6075	     60,3078	-101,8	     61,5697	-101,9
     41,6095	     60,2569	-101,4	     61,6396	-101,0
     41,6114	      60,847	-102,8	     61,7402	-100,9
     41,6134	      60,668	-101,6	     62,2479	-102,7
     41,6153	     61,2955	-103,3	     62,2143	-101,7
     41,6173	       61,21	-102,5	     62,4064	-102,8
     41,6193	     61,1751	-101,3	     62,6938	-102,9
     41,6212	     61,6986	-103,0	     62,4467	-101,5
     41,6232	     61,3741	-101,0	     63,1651	-102,6
     41,6251	     61,7684	-102,1	     62,6745	-100,9
     41,6271	     61,7142	-101,1	     62,7872	-101,8
      41,629	     61,9684	-101,5	     62,7011	-100,6
      41,631	     62,1365	-101,8	     63,0755	-100,9
     41,6329	     62,0042	-100,7	     63,7514	-101,6
     41,6349	     62,5909	-102,7	     63,7657	-100,5
     41,6369	     62,5397	-101,7	     64,2749	-102,6
     41,6388	     63,0116	-102,7	     64,0116	-101,3
     41,6408	     62,8837	-103,0	      63,903	-101,6
     41,6427	     62,9281	-101,1	     64,2436	-102,2
     41,6447	     63,2513	-102,5	     64,1756	-100,8
     41,6466	      63,269	-101,9	     64,7112	-101,7
     41,6486	     63,5534	-101,9	     64,7658	-100,4
     41,6505	     63,7719	-102,8	      64,859	-100,8
     41,6525	     63,6635	-100,3	     65,2165	-100,8
     41,6544	     64,1653	-101,3	     64,8987	-99,8
     41,6564	     63,7736	-100,4	     65,6632	-101,6
     41,6584	     64,3819	-102,7	     65,6152	-100,9
     41,6603	     64,2725	-102,1	      65,947	-101,7
     41,6623	     64,5295	-101,3	     66,1303	-101,6
     41,6642	     64,8153	-101,9	     65,8642	-100,6
     41,6662	     64,6931	-100,4	     66,3699	-101,7
     41,6681	     65,1485	-101,4	     66,1049	-100,1
     41,6701	     64,9588	-100,2	     66,3251	-100,4
      41,672	     65,3166	-100,8	     66,7027	-100,7
      41,674	     65,7979	-101,8	     66,6247	-99,6
      41,676	     65,3073	-99,8	     67,2812	-101,3
     41,6779	     65,6016	-100,3	     67,2052	-99,8
     41,6799	     65,7575	-101,0	     67,3053	-99,5
     41,6818	     65,8161	-100,0	     67,6038	-100,9
     41,6838	     66,5145	-102,0	     67,5707	-100,5
     41,6857	     66,4385	-100,0	     68,1219	-101,5
     41,6877	     66,7816	-101,3	     67,9075	-99,2
     41,6896	     66,8034	-101,2	     68,2131	-99,8
     41,6916	     66,9258	-100,7	     68,6716	-100,3
     41,6936	     67,1512	-101,8	     68,5416	-99,5
     41,6955	      67,001	-99,1	     69,0039	-101,0
     41,6975	     67,5083	-100,3	      68,936	-99,9
     41,6994	     67,3181	-99,8	     69,3568	-100,5
     41,7014	     67,5138	-99,4	      69,605	-100,9
     41,7033	     68,1545	-101,6	     69,2749	-100,3
     41,7053	     68,0346	-100,4	     69,6967	-101,1
     41,7072	     68,4098	-101,0	     70,0663	-100,9
     41,7092	      67,891	-99,2	     69,9768	-99,7
     41,7111	     68,3116	-99,1	     70,2423	-99,3
     41,7131	     68,8845	-100,4	     70,3266	-99,0
     41,7151	     68,8436	-99,7	     71,0245	-100,9
      41,717	       69,38	-100,8	     70,9117	-99,4
      41,719	     69,0971	-100,2	     70,7269	-99,0
     41,7209	      69,145	-98,5	      71,479	-100,2
     41,7229	      69,945	-100,7	     71,2809	-99,1
     41,7248	     69,8541	-99,7	     71,9853	-100,6
     41,7268	      70,515	-100,7	     72,1848	-100,3
     41,7287	      70,476	-100,7	     71,7234	-99,6
     41,7307	     70,2219	-99,2	     72,3692	-100,3
     41,7327	     70,5853	-100,2	     72,1528	-98,2
     41,7346	     70,2974	-98,8	     72,4874	-98,5
     41,7366	     70,8219	-98,9	       73,15	-99,3
     41,7385	      71,223	-99,9	      72,743	-99,6
     41,7405	     71,2407	-98,9	     73,2636	-100,1
     41,7424	     72,0141	-100,3	     73,1188	-97,9
     41,7444	     71,6627	-99,9	     73,4271	-98,9
     41,7463	     72,0855	-100,2	     74,0728	-98,5
     41,7483	     72,2682	-100,6	     73,7715	-97,8
     41,7502	     72,1924	-98,5	     74,5812	-99,9
     41,7522	     72,7137	-99,0	     74,4986	-99,0
     41,7542	     72,6724	-98,1	     74,4716	-97,9
     41,7561	     72,9766	-98,0	     75,2186	-99,1
     41,7581	     73,4177	-99,9	     75,1289	-98,0
       41,76	     73,1944	-99,1	     75,6361	-99,2
      41,762	     73,7709	-99,9	     76,0537	-99,3
     41,7639	     73,8141	-99,9	     75,7946	-98,0
     41,7659	     73,8226	-98,0	     76,1823	-98,9
     41,7678	     74,5924	-99,3	     76,1779	-97,3
     41,7698	     74,2986	-98,2	     76,1917	-97,3
     41,7718	     74,6155	-98,6	     76,9718	-98,9
     41,7737	     74,6285	-98,2	     76,7818	-97,5
     41,7757	     74,6545	-97,8	     77,3812	-99,5
     41,7776	     75,2977	-99,3	     77,7074	-98,9
     41,7796	     75,4625	-98,2	     77,5665	-98,2
     41,7815	     76,1423	-99,2	     78,2426	-98,7
     41,7835	     76,1237	-99,5	     78,1259	-96,8
     41,7854	     75,8349	-97,5	     78,1484	-97,5
     41,7874	     76,3103	-98,4	     78,6197	-97,9
     41,7893	     76,0262	-97,4	     78,7067	-97,1
     41,7913	     76,5964	-97,4	     79,4328	-98,5
     41,7933	     77,1118	-98,5	     79,4608	-97,7
     41,7952	     77,1075	-97,4	     79,8119	-97,9
     41,7972	     77,9615	-99,1	     80,3345	-98,3
     41,7991	     77,8254	-98,3	     80,2542	-96,9
     41,8011	      77,814	-97,6	     80,5943	-98,1
      41,803	     78,3046	-98,5	     80,8662	-98,3
      41,805	     78,2365	-96,7	     80,5445	-96,7
     41,8069	     78,8151	-97,4	     81,5077	-97,7
     41,8089	     78,9803	-97,6	     81,6256	-96,6
     41,8109	     78,9523	-96,7	     81,8355	-97,3
     41,8128	     79,6274	-98,0	     82,2522	-97,9
     41,8148	     79,4711	-97,3	     82,0056	-96,4
     41,8167	      79,495	-96,3	      82,486	-97,4
     41,8187	     80,3733	-98,7	     82,9353	-98,1
     41,8206	     80,3183	-97,9	     83,0077	-95,9
     41,8226	     80,7866	-97,4	     83,3746	-96,8
     41,8245	     81,1775	-97,7	     83,7031	-95,6
     41,8265	     80,7852	-95,9	      83,747	-95,7
     41,8284	     81,4857	-97,9	     84,5401	-97,3
     41,8304	     81,4583	-97,2	     84,5923	-96,4
     41,8324	     82,0187	-97,2	     84,9081	-96,2
     41,8343	     82,3941	-97,6	     85,1864	-95,3
     41,8363	     82,3263	-96,9	     85,1882	-95,0
     41,8382	     82,9461	-96,6	     85,4499	-95,7
     41,8402	     83,4502	-97,1	        85,9	-95,7
     41,8421	     83,2485	-95,8	     86,1034	-95,1
     41,8441	     83,7068	-96,8	     86,9215	-96,6
      41,846	     83,6316	-95,8	     87,0744	-95,1
      41,848	     83,8325	-95,6	     87,4035	-95,9
       41,85	      84,601	-96,7	     87,8586	-96,2
     41,8519	       84,59	-96,1	     87,7787	-94,8
     41,8539	      85,089	-96,3	      88,294	-95,5
     41,8558	     85,3784	-96,7	      88,557	-94,9
     41,8578	     85,4607	-95,1	      88,512	-94,7
     41,8597	     86,0437	-96,0	     89,5802	-95,7
     41,8617	     85,9678	-94,9	     89,7776	-95,0
     41,8636	     86,2477	-94,4	     90,1126	-95,4
     41,8656	     86,5562	-96,2	      90,597	-95,5
     41,8675	     86,6301	-95,3	     90,6329	-94,6
     41,8695	     87,4851	-96,2	     91,1051	-95,5
     41,8715	     87,8143	-96,6	     91,5716	-95,5
     41,8734	     87,7827	-94,3	     91,2268	-93,6
     41,8754	     88,3022	-95,4	     92,3185	-94,8
     41,8773	      88,153	-94,4	     92,3968	-93,9
     41,8793	     88,4078	-94,2	     92,3949	-93,3
     41,8812	     89,2416	-95,5	     93,4566	-95,0
     41,8832	     89,3254	-94,8	     93,5215	-93,9
     41,8851	     89,6788	-93,9	     93,9474	-94,2
     41,8871	     90,3507	-95,3	     94,4601	-94,8
     41,8891	     90,3734	-94,2	     94,2035	-92,5
      41,891	     90,9732	-94,9	     94,5687	-93,4
      41,893	     91,1488	-95,0	     95,2998	-93,4
     41,8949	     91,0138	-93,5	     95,5689	-92,8
     41,8969	      92,084	-95,0	     96,5952	-94,2
     41,8988	     92,1889	-94,0	      96,716	-93,1
     41,9008	     92,5112	-93,1	     96,8277	-92,6
     41,9027	     93,3001	-94,6	     97,6961	-93,6
     41,9047	     93,1225	-94,0	     98,0798	-93,1
     41,9066	     93,9546	-94,0	     98,1436	-92,4
     41,9086	     94,1793	-94,8	     98,7335	-92,9
     41,9106	     94,0541	-92,5	     99,1306	-92,1
     41,9125	     94,6446	-92,9	     99,2247	-91,7
     41,9145	     94,9004	-93,5	     100,234	-92,7
     41,9164	     94,8807	-92,9	      100,54	-92,4
     41,9184	     95,8694	-93,5	     100,931	-92,3
     41,9203	       96,16	-93,4	     101,531	-92,5
     41,9223	      96,473	-92,4	     101,634	-91,5
     41,9242	     97,1057	-93,3	      102,35	-92,1
     41,9262	     97,3164	-92,1	     102,836	-91,1
     41,9282	     97,6951	-92,1	     103,077	-90,9
     41,9301	     98,2695	-92,6	     104,175	-92,2
     41,9321	     98,3148	-92,2	     104,577	-91,3
      41,934	      99,203	-93,1	     104,822	-90,7
      41,936	     99,4584	-92,9	     105,553	-91,1
     41,9379	     99,8968	-91,8	     105,844	-89,9
     41,9399	     100,528	-92,6	     106,312	-90,4
     41,9418	     100,449	-91,5	     106,969	-90,9
     41,9438	     100,855	-90,7	       107,3	-89,7
     41,9457	     101,587	-91,2	     107,697	-90,1
     41,9477	     101,717	-91,1	     108,697	-90,3
     41,9497	     102,116	-90,2	     108,964	-89,4
     41,9516	     103,123	-92,4	     109,966	-90,1
     41,9536	     103,209	-91,3	     110,618	-90,1
     41,9555	     104,114	-91,0	      110,56	-88,8
     41,9575	     104,614	-91,6	     111,365	-89,5
     41,9594	     104,318	-89,6	     112,116	-88,8
     41,9614	     105,053	-89,8	     112,397	-88,4
     41,9633	     105,558	-90,5	     113,923	-89,2
     41,9653	     105,892	-89,6	     114,417	-88,6
     41,9673	     106,975	-91,1	      114,97	-88,4
     41,9692	     107,409	-90,7	     115,985	-88,9
     41,9712	     107,799	-89,2	     116,305	-87,4
     41,9731	     108,539	-90,2	     116,953	-87,6
     41,9751	      108,51	-89,0	     118,145	-88,2
      41,977	     108,952	-88,5	     118,745	-87,4
      41,979	     110,018	-90,2	     119,466	-87,4
     41,9809	     110,164	-89,8	     120,493	-87,8
     41,9829	     110,857	-88,8	     121,224	-86,9
     41,9848	     111,524	-89,8	     122,004	-86,3
     41,9868	     111,545	-87,6	     123,551	-86,2
     41,9888	     112,281	-88,1	     123,993	-85,7
     41,9907	     112,941	-88,6	     125,053	-86,5
     41,9927	     113,216	-87,9	      126,02	-86,2
     41,9946	     113,794	-87,2	     126,537	-84,8
     41,9966	     115,102	-88,6	     127,635	-85,2
     41,9985	     115,227	-87,9	       129,2	-84,3
     42,0005	     116,265	-87,8	     129,987	-83,7
     42,0024	     116,562	-87,4	     131,611	-84,5
     42,0044	     116,962	-86,0	     132,936	-84,4
     42,0064	      118,28	-87,5	     133,929	-82,9
     42,0083	     118,461	-87,3	     135,409	-83,3
     42,0103	     118,771	-86,3	     137,421	-82,4
     42,0122	     120,195	-87,4	     138,505	-81,8
     42,0142	     120,538	-87,0	     140,888	-82,4
     42,0161	     121,026	-85,6	      142,34	-81,5
     42,0181	     121,858	-85,7	     143,856	-80,9
       42,02	     122,385	-85,7	     145,636	-81,0
      42,022	     122,904	-84,9	     147,905	-80,0
     42,0239	     124,265	-85,9	     149,232	-79,1
     42,0259	     124,833	-85,5	     151,919	-79,6
     42,0279	     125,336	-84,6	     153,732	-79,1
     42,0298	     126,131	-84,5	     155,545	-77,5
     42,0318	     126,756	-84,4	     158,015	-77,5
     42,0337	     127,346	-83,8	     160,306	-77,2
     42,0357	     128,631	-84,7	     162,623	-75,4
     42,0376	     128,952	-83,6	     164,789	-75,3
     42,0396	     130,316	-83,3	     167,987	-74,1
     42,0415	     131,172	-83,7	      169,85	-73,3
     42,0435	     131,491	-82,6	     173,004	-73,3
     42,0455	      132,27	-82,2	     175,625	-71,2
     42,0474	     133,539	-83,0	     177,616	-70,8
     42,0494	     134,032	-82,5	     181,131	-70,9
     42,0513	     135,245	-81,9	     183,239	-69,2
     42,0533	     136,185	-82,3	     185,476	-68,4
     42,0552	     136,726	-81,9	     187,827	-67,7
     42,0572	      137,87	-80,9	     190,723	-66,5
     42,0591	      138,72	-81,1	     192,612	-65,5
     42,0611	     139,457	-80,3	     195,264	-65,3
      42,063	     140,287	-79,9	     197,496	-63,0
      42,065	     142,139	-80,7	     199,201	-62,6
      42,067	     142,636	-79,1	     201,275	-62,3
     42,0689	     143,845	-78,7	     203,653	-60,7
     42,0709	     145,258	-79,0	     205,095	-59,8
     42,0728	     146,053	-78,5	      207,72	-59,7
     42,0748	     147,623	-77,7	     209,287	-58,9
     42,0767	     148,615	-78,0	     210,813	-57,5
     42,0787	     149,425	-76,9	     212,422	-57,2
     42,0806	     150,651	-76,4	     214,529	-56,1
     42,0826	     152,183	-76,9	     215,662	-54,9
     42,0846	     153,086	-76,0	     217,314	-54,4
     42,0865	     154,171	-75,0	     218,857	-52,8
     42,0885	     156,247	-75,4	     219,846	-52,3
     42,0904	     157,207	-74,9	     221,897	-52,3
     42,0924	     158,801	-73,8	     222,945	-51,3
     42,0943	     160,189	-73,5	      223,92	-50,7
     42,0963	     161,169	-73,3	     225,178	-50,6
     42,0982	     163,292	-72,8	     226,392	-50,0
     42,1002	     164,666	-72,9	     226,943	-48,2
     42,1021	     165,766	-70,9	     227,732	-47,9
     42,1041	     167,222	-70,5	     229,481	-46,9
     42,1061	     169,449	-70,3	     230,046	-46,1
      42,108	     170,886	-69,3	     230,867	-45,7
       42,11	      172,42	-67,9	     231,614	-45,4
     42,1119	     175,148	-68,6	     232,204	-44,3
     42,1139	      176,48	-67,8	     232,746	-43,4
     42,1158	     178,888	-66,4	     234,335	-43,7
     42,1178	     180,898	-66,1	     234,872	-42,8
     42,1197	     182,791	-65,2	     235,156	-42,2
     42,1217	     184,287	-64,4	      235,92	-42,0
     42,1237	     187,336	-63,7	     236,148	-40,3
     42,1256	     189,029	-63,0	     236,613	-39,9
     42,1276	     191,119	-61,0	     237,854	-39,8
     42,1295	     193,041	-60,3	     238,112	-38,5
     42,1315	     195,357	-59,9	     238,271	-38,9
     42,1334	      196,99	-58,7	      238,99	-38,9
     42,1354	     200,175	-58,3	     239,458	-37,3
     42,1373	     201,801	-57,6	     239,592	-37,1
     42,1393	     203,988	-55,4	     240,388	-37,2
     42,1413	      206,05	-55,2	     240,825	-36,5
     42,1432	     208,264	-54,0	     240,599	-35,6
     42,1452	     210,288	-52,5	      240,95	-35,5
     42,1471	     213,271	-52,0	      241,55	-34,0
     42,1491	     215,013	-50,9	     241,442	-33,6
      42,151	     216,417	-49,7	     242,457	-34,0
      42,153	     219,199	-48,5	     242,696	-33,5
     42,1549	     221,077	-48,1	     242,138	-32,9
     42,1569	     222,782	-46,2	     242,415	-32,5
     42,1588	     224,502	-45,3	     243,199	-32,1
     42,1608	     226,834	-44,4	     243,428	-31,4
     42,1628	      227,94	-43,6	     243,036	-31,3
     42,1647	     230,238	-41,6	     243,443	-31,1
     42,1667	     231,816	-41,0	     243,341	-29,7
     42,1686	     232,891	-39,6	     243,433	-29,7
     42,1706	     234,298	-38,4	     243,491	-29,6
     42,1725	     236,143	-38,5	     243,957	-28,6
     42,1745	     237,093	-37,5	     243,761	-28,3
     42,1764	     238,556	-35,7	     244,268	-28,5
     42,1784	     239,605	-34,8	     244,077	-27,7
     42,1804	      240,25	-34,6	     243,937	-27,6
     42,1823	     240,935	-33,7	     244,439	-27,5
     42,1843	     242,417	-32,4	      244,61	-27,1
     42,1862	     243,032	-32,2	     243,747	-26,1
     42,1882	     243,256	-30,5	     243,887	-26,2
     42,1901	     244,169	-29,6	     244,505	-25,4
     42,1921	     244,307	-29,9	     244,514	-24,8
      42,194	     244,524	-28,8	     244,142	-25,2
      42,196	      245,69	-28,8	     244,362	-25,1
     42,1979	     245,715	-28,5	     244,254	-24,2
     42,1999	     245,374	-26,8	     243,972	-23,9
     42,2019	     245,804	-26,6	     244,631	-24,0
     42,2038	     245,859	-26,3	     244,341	-23,3
     42,2058	     245,752	-25,8	     243,622	-22,9
     42,2077	     246,254	-25,0	     243,673	-23,1
     42,2097	      246,29	-24,9	     243,941	-21,9
     42,2116	     246,169	-24,7	      243,75	-21,5
     42,2136	     246,256	-23,5	     243,474	-21,8
     42,2155	     246,723	-23,4	     243,511	-21,8
     42,2175	     246,214	-23,4	     243,171	-20,9
     42,2195	     245,974	-22,9	     242,965	-20,7
     42,2214	     246,799	-22,3	     243,564	-21,2
     42,2234	     246,768	-22,5	     243,123	-20,3
     42,2253	     246,043	-21,5	     242,798	-19,9
     42,2273	      246,18	-21,2	     243,239	-19,6
     42,2292	     246,268	-21,1	     243,016	-19,2
     42,2312	     245,791	-20,5	     242,651	-19,1
     42,2331	     245,988	-19,6	     242,302	-19,1
     42,2351	     245,819	-19,6	     242,521	-18,5
      42,237	     245,184	-19,7	     241,938	-17,7
      42,239	     245,225	-18,7	     241,724	-17,7
      42,241	     245,515	-19,1	     241,986	-17,7
     42,2429	     245,243	-19,1	     241,741	-16,9
     42,2449	     244,941	-18,4	     241,182	-17,1
     42,2468	      245,13	-17,7	     241,354	-16,9
     42,2488	     244,715	-17,9	     241,468	-16,2
     42,2507	     244,198	-17,5	     241,083	-15,8
     42,2527	     244,541	-16,5	     241,207	-16,1
     42,2546	     244,434	-16,5	     241,174	-15,8
     42,2566	     243,765	-15,9	     240,419	-15,2
     42,2586	     243,768	-15,6	     240,151	-15,0
     42,2605	     243,799	-15,3	     240,479	-14,4
     42,2625	     243,205	-15,8	     240,325	-14,2
     42,2644	     242,927	-15,1	     239,567	-14,1
     42,2664	     243,283	-14,8	     239,465	-14,4
     42,2683	     242,377	-15,0	       239,5	-13,5
     42,2703	     242,106	-14,7	     239,055	-13,0
     42,2722	      242,58	-13,7	     238,937	-13,8
     42,2742	     242,389	-14,0	     238,861	-13,2
     42,2761	     241,549	-13,1	     238,296	-12,9
     42,2781	     241,288	-12,6	     237,937	-12,7
     42,2801	     241,327	-12,5	     237,877	-12,8
      42,282	     240,864	-13,1	     237,907	-11,6
      42,284	     240,659	-12,3	     237,345	-12,1
     42,2859	     241,113	-12,3	     237,281	-11,7
     42,2879	     240,903	-12,1	     237,181	-10,7
     42,2898	     239,981	-11,9	     236,557	-10,7
     42,2918	     239,781	-11,1	     236,357	-10,9
     42,2937	     240,043	-11,4	      236,44	-10,5
     42,2957	     239,652	-11,3	     235,878	-10,0
     42,2977	     238,989	-10,8	     235,519	-9,8
     42,2996	     239,063	-10,6	     235,595	-10,2
     42,3016	     238,579	-10,5	     235,552	-9,8
     42,3035	     238,057	-10,1	     234,518	-9,5
     42,3055	     238,146	-9,2	     234,407	-9,8
     42,3074	      238,09	-9,2	     234,871	-8,7
     42,3094	     237,176	-8,9	     234,425	-8,6
     42,3113	     236,969	-8,4	     233,928	-8,5
     42,3133	     237,168	-9,0	     234,143	-8,2
     42,3153	      236,81	-8,6	     233,609	-7,3
     42,3172	     236,107	-8,2	     233,253	-7,2
     42,3192	     236,212	-7,7	     233,142	-7,6
     42,3211	     236,092	-8,3	     233,218	-7,2
     42,3231	     235,526	-7,9	     232,413	-6,8
      42,325	     235,332	-7,2	     232,041	-6,6
      42,327	      234,89	-7,1	     232,298	-6,4
     42,3289	     234,264	-6,8	     232,041	-6,0
     42,3309	     234,011	-6,5	     231,165	-6,7
     42,3328	     234,232	-6,3	     230,949	-6,3
     42,3348	     233,951	-6,3	     231,156	-5,5
     42,3368	     233,128	-5,5	     230,692	-5,3
     42,3387	      232,93	-5,1	     230,416	-5,5
     42,3407	     232,748	-5,6	     230,323	-5,6
     42,3426	     232,382	-5,5	     229,729	-4,5
     42,3446	     232,004	-5,2	     229,279	-4,5
     42,3465	     231,768	-4,2	     229,232	-4,5
     42,3485	     231,255	-5,1	     229,053	-4,3
     42,3504	     230,849	-4,2	     228,032	-3,5
     42,3524	     230,717	-4,1	     227,762	-3,7
     42,3544	     230,326	-4,5	     227,816	-3,5
     42,3563	     229,989	-4,1	      227,87	-3,3
     42,3583	     230,121	-3,1	     227,207	-2,7
     42,3602	     230,036	-3,0	     226,868	-3,3
     42,3622	     229,582	-3,3	     226,703	-3,0
     42,3641	     228,497	-2,8	      226,28	-2,8
     42,3661	     228,413	-2,1	     226,111	-3,1
      42,368	     228,282	-2,6	     225,974	-2,8
       42,37	     227,696	-2,1	       225,4	-2,0
     42,3719	     227,423	-1,9	     225,018	-1,9
     42,3739	     227,221	-1,7	     224,718	-1,9
     42,3759	     226,713	-2,5	     224,864	-1,7
     42,3778	     226,137	-2,0	     223,905	-1,0
     42,3798	     226,418	-1,3	     223,502	-1,1
     42,3817	     226,125	-1,5	     223,372	-1,1
     42,3837	     225,011	-1,4	     223,554	-0,3
     42,3856	     224,682	-0,9	     223,244	-0,1
     42,3876	     224,838	-0,4	     222,273	-0,1
     42,3895	     224,483	-1,0	      222,46	 0,2
     42,3915	     223,801	 0,0	      222,25	 0,5
     42,3935	     223,563	 0,4	     221,584	 0,2
     42,3954	     223,473	 0,3	     221,311	 0,3
     42,3974	     223,184	 0,4	     221,362	 0,6
     42,3993	     222,541	 0,7	       220,7	 0,9
     42,4013	      222,62	 1,1	     220,214	 0,4
     42,4032	     221,989	 0,6	     220,133	 0,8
     42,4052	     221,459	 0,7	       219,7	 1,5
     42,4071	     221,498	 1,3	      219,17	 1,9
     42,4091	     221,306	 1,4	     218,959	 1,2
      42,411	     220,204	 1,4	     219,191	 1,8
      42,413	      219,98	 1,6	     218,904	 2,0
      42,415	     220,126	 1,7	     217,665	 2,3
     42,4169	     220,001	 1,8	     217,922	 2,8
     42,4189	     218,883	 2,3	      217,67	 2,8
     42,4208	     218,808	 2,5	     216,578	 3,1
     42,4228	     219,034	 2,9	     216,467	 2,9
     42,4247	     218,505	 2,2	     216,713	 3,5
     42,4267	     217,553	 3,4	     216,405	 3,8
     42,4286	     217,365	 3,2	     215,438	 3,3
     42,4306	     217,363	 3,5	     215,367	 3,7
     42,4326	     216,648	 3,6	     215,319	 4,0
     42,4345	     216,279	 4,2	     214,812	 3,8
     42,4365	     216,195	 4,6	     214,373	 4,3
     42,4384	     215,881	 4,1	     214,145	 3,4
     42,4404	     214,855	 4,4	     213,448	 3,7
     42,4423	     214,606	 4,8	     212,597	 4,1
     42,4443	     214,891	 4,6	     212,084	 3,9
     42,4462	     213,883	 4,3	         212	 4,1
     42,4482	     213,494	 4,6	     211,461	 4,3
     42,4501	     213,303	 5,2	     211,053	 4,7
     42,4521	     213,309	 4,8	     210,938	 5,0
     42,4541	     212,719	 4,6	      210,77	 5,0
      42,456	     212,294	 6,0	     210,573	 5,2
      42,458	     212,067	 6,1	     209,382	 5,3
     42,4599	     211,631	 5,9	     209,289	 5,5
     42,4619	     211,192	 5,7	     209,499	 6,1
     42,4638	     210,732	 6,1	     209,243	 6,4
     42,4658	      210,71	 6,1	     208,219	 6,3
     42,4677	     210,256	 6,4	     208,108	 6,1
     42,4697	     209,626	 7,2	     207,957	 6,8
     42,4717	     209,338	 7,3	      207,64	 7,2
     42,4736	     209,085	 7,1	     206,824	 6,7
     42,4756	     208,424	 7,0	     206,799	 6,7
     42,4775	      208,26	 7,6	     206,575	 7,2
     42,4795	     208,051	 7,9	     205,958	 7,8
     42,4814	     207,924	 8,0	     205,991	 6,9
     42,4834	     206,964	 8,1	     205,787	 7,2
     42,4853	     206,506	 7,6	     205,521	 8,0
     42,4873	     206,931	 8,0	     204,384	 7,7
     42,4892	      206,67	 8,2	     204,552	 7,3
     42,4912	     205,527	 8,0	     204,408	 7,9
     42,4932	     205,331	 8,5	     203,542	 8,3
     42,4951	      205,46	 8,7	     203,208	 8,2
     42,4971	      205,35	 8,8	     203,233	 8,7
      42,499	     204,089	 9,2	     203,304	 8,6
      42,501	     203,764	 9,2	     202,895	 8,9
     42,5029	     203,938	 9,3	     201,967	 8,8
     42,5049	     203,342	 9,1	     201,661	 8,9
     42,5068	     202,568	10,0	     201,702	 9,5
     42,5088	     202,326	 9,8	     201,441	 9,7
     42,5108	     202,279	 9,9	     200,317	 9,8
     42,5127	     201,677	10,0	     200,456	10,1
     42,5147	      200,84	10,5	     200,344	10,3
     42,5166	     200,882	10,7	      199,23	10,5
     42,5186	     200,883	10,8	     198,758	10,6
     42,5205	     200,385	10,5	     199,115	10,5
     42,5225	     199,743	11,0	     198,805	11,2
     42,5244	     199,922	11,2	     198,377	11,4
     42,5264	     199,488	11,3	     197,712	10,7
     42,5283	     198,616	11,4	     197,636	11,0
     42,5303	     198,196	11,8	     197,189	11,6
     42,5323	     198,012	12,1	     196,685	11,8
     42,5342	     197,427	11,5	     196,202	11,3
     42,5362	     197,007	11,9	     196,024	11,4
     42,5381	     196,986	12,1	     195,794	11,8
     42,5401	     196,838	12,5	     195,441	11,8
      42,542	     196,246	12,0	     195,083	11,4
      42,544	     195,662	12,0	     194,816	11,8
     42,5459	     195,512	12,6	     194,446	12,3
     42,5479	     195,191	12,9	     193,871	12,5
     42,5499	      194,62	12,3	     193,454	12,3
     42,5518	      194,12	12,7	      193,87	12,6
     42,5538	     194,236	13,1	     193,495	13,0
     42,5557	     193,962	13,3	     192,572	12,8
     42,5577	     192,944	13,4	     192,103	13,1
     42,5596	     192,554	13,2	     192,352	13,1
     42,5616	      192,63	13,9	     192,138	13,7
     42,5635	     192,347	13,9	     191,195	13,2
     42,5655	     191,283	13,8	     190,933	13,1
     42,5674	     191,018	13,7	      191,09	14,2
     42,5694	     191,025	14,5	     190,638	13,9
     42,5714	     190,827	14,6	     189,618	14,1
     42,5733	      189,94	14,0	     189,357	14,0
     42,5753	     189,376	14,5	     189,612	14,7
     42,5772	     189,871	15,0	      189,12	15,1
     42,5792	     189,385	15,3	     188,675	14,9
     42,5811	     189,236	15,2	     187,985	14,7
     42,5831	     188,097	15,2	     187,999	15,1
      42,585	     188,352	16,2	     187,774	15,4
      42,587	     188,117	15,7	     187,348	15,5
      42,589	     187,817	16,2	     186,804	15,4
     42,5909	     186,758	16,1	     186,864	15,5
     42,5929	     186,204	16,0	     186,525	16,0
     42,5948	     186,472	16,4	     185,355	15,9
     42,5968	      185,91	16,1	     185,102	15,9
     42,5987	      184,77	16,1	     185,333	16,2
     42,6007	     184,435	16,6	     185,064	16,8
     42,6026	     185,059	16,8	      184,01	16,3
     42,6046	     184,792	16,9	     183,733	16,3
     42,6065	     183,608	16,7	     183,559	16,3
     42,6085	     183,366	16,8	     183,679	16,7
     42,6105	     183,602	17,0	     183,276	17,0
     42,6124	     183,252	17,0	      182,22	16,8
     42,6144	     182,336	16,9	     182,141	16,6
     42,6163	     182,222	17,3	     182,369	17,4
     42,6183	     181,951	17,5	     181,923	17,7
     42,6202	     181,899	17,6	     180,854	17,2
     42,6222	     181,343	17,1	     180,633	17,7
     42,6241	     180,394	17,6	     180,969	17,7
     42,6261	     180,681	17,9	     180,365	18,1
     42,6281	     180,395	17,7	     179,503	17,4
       42,63	     179,255	17,9	     179,414	18,2
      42,632	     178,938	18,3	     179,714	18,1
     42,6339	     179,178	18,6	     179,315	18,4
     42,6359	     178,869	18,1	     178,329	18,2
     42,6378	     178,685	18,6	     177,963	18,3
     42,6398	     177,709	18,8	     178,377	18,5
     42,6417	     177,412	18,9	     177,917	18,7
     42,6437	     177,671	19,2	     176,809	18,7
     42,6456	     177,389	18,6	      176,51	19,0
     42,6476	     176,022	19,0	     176,954	18,7
     42,6496	     175,764	19,0	     176,502	19,5
     42,6515	     176,027	19,8	     175,527	19,3
     42,6535	     175,092	19,6	     175,179	19,2
     42,6554	      174,73	19,2	     175,556	19,5
     42,6574	     174,462	20,2	     175,163	19,6
     42,6593	     174,427	20,2	     174,357	19,9
     42,6613	     173,837	20,1	     173,973	20,0
     42,6632	     173,447	19,7	     174,135	19,4
     42,6652	     173,086	20,5	     173,846	19,6
     42,6672	     172,947	20,5	     173,324	20,1
     42,6691	     172,834	20,7	      172,91	20,3
     42,6711	     172,111	20,3	     172,349	20,1
      42,673	     171,838	20,5	     172,078	20,3
      42,675	     171,563	21,4	     172,015	20,7
     42,6769	     171,232	21,0	     171,476	20,9
     42,6789	     170,767	21,0	     170,977	20,7
     42,6808	     169,899	21,5	     170,761	20,7
     42,6828	     169,731	21,4	     170,687	21,4
     42,6847	     169,923	21,8	     170,241	21,4
     42,6867	     169,553	21,6	      169,38	21,3
     42,6887	     169,211	21,5	     169,295	21,2
     42,6906	     168,473	22,6	     169,605	21,7
     42,6926	     168,318	22,3	     169,068	21,8
     42,6945	     168,183	22,2	     167,918	21,9
     42,6965	     167,581	21,9	      167,64	21,8
     42,6984	     166,849	22,8	     167,846	21,8
     42,7004	     166,616	22,6	     167,637	21,9
     42,7023	     166,911	22,6	     167,364	22,5
     42,7043	     166,634	22,9	     166,452	22,3
     42,7063	     165,539	22,7	     166,254	22,4
     42,7082	     165,847	23,1	     166,624	22,6
     42,7102	     165,539	23,4	     165,707	22,7
     42,7121	     164,857	23,2	     165,107	22,6
     42,7141	     164,251	23,4	     164,983	22,7
      42,716	     163,699	23,3	     164,827	22,6
      42,718	     164,087	23,8	     164,621	23,0
     42,7199	     163,649	23,9	     163,991	23,6
     42,7219	     162,946	23,8	     163,394	23,1
     42,7239	     162,663	23,7	     163,385	23,1
     42,7258	     162,472	24,3	      163,25	23,3
     42,7278	     162,134	24,4	     162,665	23,6
     42,7297	     161,915	24,2	     162,386	23,8
     42,7317	     161,386	24,1	     161,744	23,6
     42,7336	     160,866	24,5	      161,57	23,7
     42,7356	     160,575	24,7	     161,702	24,0
     42,7375	     160,748	24,8	     161,213	24,2
     42,7395	     160,263	24,5	     160,344	24,3
     42,7414	     159,464	25,2	     159,901	24,3
     42,7434	     159,244	25,4	     160,301	24,5
     42,7454	     159,353	25,1	     160,126	24,6
     42,7473	     159,027	25,2	     158,999	24,6
     42,7493	      158,16	25,2	     158,548	24,7
     42,7512	      157,81	25,3	     158,827	25,0
     42,7532	     158,217	25,6	     158,493	25,0
     42,7551	     158,021	25,8	     157,615	25,0
     42,7571	     157,053	25,7	     157,283	25,0
      42,759	     156,399	25,8	      157,21	24,7
      42,761	     156,651	26,1	     157,042	25,0
      42,763	     156,323	26,0	     156,873	25,4
     42,7649	     156,122	26,0	     156,068	25,8
     42,7669	     155,076	26,2	     155,569	25,9
     42,7688	     154,805	25,9	     155,527	25,4
     42,7708	     154,931	26,6	     155,481	25,9
     42,7727	     154,664	26,3	     155,105	26,2
     42,7747	     154,288	26,4	     154,611	26,4
     42,7766	     153,433	26,8	     153,922	26,0
     42,7786	     153,194	27,0	     154,348	26,3
     42,7805	     153,501	26,9	     154,093	26,2
     42,7825	     153,182	26,8	       152,9	26,2
     42,7845	     152,083	27,2	     152,571	26,4
     42,7864	      151,84	27,5	     152,164	26,5
     42,7884	     151,614	27,2	     152,458	26,8
     42,7903	     152,061	27,4	     152,195	27,2
     42,7923	      151,75	27,4	     151,454	26,9
     42,7942	     150,662	27,4	     151,154	27,4
     42,7962	     150,296	27,6	     151,024	26,8
     42,7981	     150,501	27,9	     150,739	27,1
     42,8001	     150,107	27,9	     150,528	27,5
     42,8021	     149,843	27,7	      150,19	27,6
      42,804	     148,891	28,1	     149,166	27,6
      42,806	     148,572	28,3	     148,879	27,7
     42,8079	     149,055	28,1	      149,32	28,3
     42,8099	     148,728	28,2	     149,218	28,2
     42,8118	       148,4	27,8	     148,159	27,9
     42,8138	     147,402	28,7	     147,631	28,3
     42,8157	     147,093	28,5	     148,044	28,3
     42,8177	     147,458	28,7	     147,777	28,5
     42,8196	     147,283	28,5	     147,016	28,7
     42,8216	     146,115	28,8	     146,703	28,8
     42,8236	     145,994	28,3	     146,274	28,9
     42,8255	     146,202	29,0	     146,028	28,8
     42,8275	     145,952	29,2	     146,286	29,0
     42,8294	     145,289	28,6	     145,965	29,1
     42,8314	     145,058	28,9	     144,807	29,2
     42,8333	     144,402	29,4	     144,536	29,1
     42,8353	      144,47	29,2	     144,753	29,2
     42,8372	     144,278	29,3	     144,673	29,4
     42,8392	     144,042	29,4	     143,859	29,9
     42,8412	     142,985	29,3	     143,454	29,5
     42,8431	     143,017	29,6	      143,41	29,5
     42,8451	     143,342	29,7	     143,348	29,4
      42,847	     143,026	29,8	      143,15	29,7
      42,849	     141,844	29,7	     142,837	29,7
     42,8509	     141,545	30,0	     141,729	29,9
     42,8529	     141,366	29,8	     141,461	29,6
     42,8548	     141,105	30,3	     141,844	30,2
     42,8568	     141,354	30,0	     141,605	29,7
     42,8587	     140,907	30,0	     141,042	30,3
     42,8607	     140,142	30,2	     140,162	30,1
     42,8627	     140,028	30,5	     139,914	30,1
     42,8646	     140,127	30,6	       140,4	30,4
     42,8666	     139,912	30,6	     140,168	30,3
     42,8685	     138,904	30,4	     139,152	30,7
     42,8705	      138,64	30,9	     138,589	30,4
     42,8724	     138,854	31,0	     138,575	30,2
     42,8744	     138,739	31,2	      138,26	30,6
     42,8763	     138,059	30,8	      138,28	30,9
     42,8783	     137,598	31,2	     138,009	31,0
     42,8803	     137,282	31,5	     137,654	31,5
     42,8822	     137,268	31,9	     136,941	31,0
     42,8842	     136,938	31,8	      137,33	30,9
     42,8861	      136,81	31,5	     137,095	31,0
     42,8881	     136,157	31,8	     136,104	31,4
       42,89	     135,641	31,9	     135,629	31,6
      42,892	     135,388	32,1	     135,126	31,4
     42,8939	       135,8	32,4	     135,141	31,7
     42,8959	     135,381	32,2	     135,153	31,7
     42,8979	     134,388	32,0	      135,04	32,3
     42,8998	     133,954	32,6	     134,979	32,2
     42,9018	     134,428	32,5	     133,919	32,1
     42,9037	     134,315	32,6	     133,707	32,1
     42,9057	     133,526	32,6	     133,944	32,3
     42,9076	     133,124	32,5	     133,783	32,2
     42,9096	     132,572	33,0	     132,791	32,5
     42,9115	     132,239	32,5	     132,516	32,6
     42,9135	     132,241	32,7	     132,449	32,4
     42,9154	     132,405	32,6	     132,353	32,1
     42,9174	     132,116	32,5	     132,086	32,9
     42,9194	     131,168	33,2	     131,874	32,9
     42,9213	     131,113	33,0	     131,028	32,8
     42,9233	     131,392	33,2	     130,802	32,4
     42,9252	     131,037	32,8	     131,289	32,7
     42,9272	     130,259	33,2	     130,964	32,9
     42,9291	     129,937	33,2	      130,11	33,1
     42,9311	     129,694	33,4	     129,773	33,6
      42,933	     129,574	33,3	     129,423	32,8
      42,935	     129,712	33,4	     129,232	32,9
      42,937	     129,243	33,2	     129,358	33,2
     42,9389	     128,991	33,5	     128,941	33,4
     42,9409	     128,007	33,8	     128,586	33,7
     42,9428	     128,314	33,7	     127,647	33,5
     42,9448	     128,202	33,8	     127,347	33,6
     42,9467	     127,695	33,8	     127,876	33,8
     42,9487	     127,448	34,1	     127,733	33,9
     42,9506	     126,658	34,2	     126,966	34,3
     42,9526	     126,494	34,6	     126,225	34,2
     42,9545	     127,044	34,7	     126,146	34,3
     42,9565	     126,688	34,6	     126,543	34,3
     42,9585	     125,941	34,7	      126,29	34,4
     42,9604	      125,47	34,5	     126,192	34,5
     42,9624	     125,008	35,0	     125,061	34,7
     42,9643	      124,75	34,6	     124,842	34,7
     42,9663	     125,186	34,8	     124,798	34,2
     42,9682	     124,867	34,7	     124,651	34,4
     42,9702	     123,879	34,9	     124,513	34,4
     42,9721	     123,533	34,8	     124,239	34,5
     42,9741	     123,727	35,1	     123,342	34,7
     42,9761	     123,524	35,1	     123,072	34,8
      42,978	     123,301	34,9	      123,24	34,5
       42,98	     123,226	34,8	     123,225	34,9
     42,9819	     122,207	35,2	     122,755	34,9
     42,9839	     121,956	35,1	     122,107	35,1
     42,9858	     122,279	35,3	     121,888	35,0
     42,9878	     122,287	35,5	     121,636	35,4
     42,9897	     121,839	35,1	     121,958	35,3
     42,9917	      121,45	35,5	     121,772	35,2
     42,9936	     120,753	35,6	     120,755	35,3
     42,9956	     120,535	36,0	     120,444	35,5
     42,9976	     120,904	36,2	     120,044	35,4
     42,9995	       120,7	36,2	     119,813	35,6
     43,0015	     119,868	35,9	     120,273	35,8
     43,0034	     119,583	36,0	     120,131	35,8
     43,0054	     119,288	36,5	     118,939	36,2
     43,0073	     119,086	36,7	     118,953	36,1
     43,0093	     119,174	36,8	     118,976	35,9
     43,0112	     118,805	36,5	     118,983	36,0
     43,0132	     117,805	36,5	     118,639	36,4
     43,0152	     117,499	36,3	     118,363	36,2
     43,0171	     117,462	36,0	     117,497	36,2
     43,0191	     117,684	36,6	      117,29	36,1
      43,021	     117,643	36,7	     117,552	36,2
      43,023	     117,533	36,5	     117,268	36,0
     43,0249	     116,542	36,8	     117,226	36,7
     43,0269	     116,312	36,7	     117,061	36,6
     43,0288	      116,22	36,9	     116,046	36,6
     43,0308	     116,124	37,1	     115,871	36,6
     43,0327	     116,131	37,0	     115,892	36,5
     43,0347	      115,89	37,0	     115,827	36,8
     43,0367	     115,098	37,1	      115,13	36,8
     43,0386	     114,875	37,4	     114,987	37,2
     43,0406	     115,067	37,2	      114,21	36,9
     43,0425	      114,74	37,9	     114,065	37,5
     43,0445	     114,589	37,7	     114,462	37,3
     43,0464	     114,164	37,4	     114,561	37,4
     43,0484	     113,958	37,4	     114,022	37,5
     43,0503	     113,252	37,8	     113,913	37,4
     43,0523	     113,403	37,9	     112,944	37,5
     43,0543	     113,245	37,7	     112,618	37,3
     43,0562	     112,958	37,5	     113,048	37,2
     43,0582	     112,777	37,6	     112,702	37,2
     43,0601	     112,027	37,9	     112,724	37,7
     43,0621	     111,714	38,0	     112,035	37,6
      43,064	     111,742	37,9	      111,83	37,7
      43,066	     112,203	38,0	      111,16	37,8
     43,0679	     111,801	38,1	     111,526	37,4
     43,0699	     111,226	37,9	     111,202	37,8
     43,0718	     110,934	38,4	     110,827	38,2
     43,0738	     110,395	38,8	     110,635	38,4
     43,0758	     109,948	38,5	     109,774	38,2
     43,0777	     110,369	38,8	      109,59	38,6
     43,0797	     110,144	38,6	     110,126	38,5
     43,0816	     109,966	38,3	     110,133	38,3
     43,0836	     109,565	38,4	      109,92	38,1
     43,0855	     108,646	38,8	     109,161	38,4
     43,0875	     108,398	38,7	     108,864	38,5
     43,0894	     108,885	38,6	     108,352	38,1
     43,0914	      108,74	38,5	     108,098	38,4
     43,0934	     108,321	38,4	     108,586	38,4
     43,0953	     108,237	38,6	     108,222	38,5
     43,0973	     107,421	39,0	     107,942	38,7
     43,0992	     107,189	39,1	     107,034	38,7
     43,1012	     107,559	39,3	     106,816	38,9
     43,1031	     107,187	39,4	     106,865	38,9
     43,1051	     107,119	39,1	     106,715	39,0
      43,107	     106,975	39,3	     106,616	39,6
      43,109	     105,962	39,6	      106,59	39,5
     43,1109	     105,805	39,6	     106,563	39,3
     43,1129	      105,92	39,7	     105,552	39,2
     43,1149	     105,843	39,4	     105,216	39,2
     43,1168	     105,781	39,5	     105,609	39,0
     43,1188	     105,677	39,2	     105,437	39,1
     43,1207	     104,564	39,5	     105,234	39,2
     43,1227	     104,654	39,6	     104,324	39,5
     43,1246	     104,578	39,8	      103,95	39,2
     43,1266	     104,301	39,9	      104,13	39,3
     43,1285	      104,66	39,9	     103,829	39,8
     43,1305	     104,288	40,2	     104,194	39,5
     43,1325	     103,635	40,0	     103,971	39,9
     43,1344	     102,958	40,3	     103,349	40,0
     43,1364	     102,738	40,3	     103,225	40,3
     43,1383	     103,213	40,6	     102,477	39,8
     43,1403	     102,854	40,3	     102,376	39,7
     43,1422	     102,937	40,0	     102,804	40,1
     43,1442	     102,765	40,2	     102,751	40,2
     43,1461	     101,681	40,1	     102,467	39,5
     43,1481	     101,749	39,8	     101,776	40,0
       43,15	     101,614	40,4	     101,215	40,0
      43,152	     101,465	40,7	     101,072	40,4
      43,154	     101,455	40,3	     101,377	39,9
     43,1559	     101,612	40,4	     100,917	40,0
     43,1579	     100,656	40,3	     100,762	40,2
     43,1598	     100,495	40,7	     100,791	40,8
     43,1618	     100,178	41,2	     99,8631	40,9
     43,1637	     99,8105	41,5	     99,8907	41,2
     43,1657	     100,278	41,2	      99,636	40,5
     43,1676	     100,206	40,9	     99,8536	40,2
     43,1696	     100,095	40,8	     99,5469	40,3
     43,1716	     99,2691	40,7	     99,5421	40,6
     43,1735	     98,9419	40,6	     99,5133	40,7
     43,1755	     98,5659	41,2	     98,4003	40,7
     43,1774	     98,4954	41,3	     98,1854	41,0
     43,1794	     98,8081	41,3	     98,1199	40,6
     43,1813	     98,6241	41,2	     97,9464	40,8
     43,1833	     98,2115	41,0	     98,1605	41,4
     43,1852	     98,1427	41,3	      98,023	41,1
     43,1872	     97,3806	41,8	     97,3206	41,5
     43,1891	     96,9791	41,9	     97,0892	41,4
     43,1911	     97,4335	41,6	     97,0033	41,6
     43,1931	     97,2116	41,6	     96,7747	41,3
      43,195	     97,0931	41,8	     97,3422	41,4
      43,197	     96,9291	41,2	     97,1764	40,9
     43,1989	     96,8669	41,0	     96,8464	40,8
     43,2009	     95,8609	41,4	      95,915	41,5
     43,2028	     95,6544	41,8	      95,614	41,4
     43,2048	     95,7756	41,9	     95,3333	41,4
     43,2067	     95,5974	42,4	     95,0172	41,5
     43,2087	     95,7862	41,5	     95,4842	41,4
     43,2107	     95,4564	41,9	     95,2695	41,9
     43,2126	     94,6171	41,8	     95,3987	42,1
     43,2146	     94,6358	42,2	     95,3558	42,1
     43,2165	      94,252	42,4	     94,2213	41,9
     43,2185	     93,9155	42,2	     93,9932	41,8
     43,2204	     94,4078	42,0	     93,8206	41,6
     43,2224	     94,2316	42,0	     93,7063	41,6
     43,2243	     94,1128	41,6	     94,3742	41,6
     43,2263	     93,8728	42,2	     94,0301	41,6
     43,2282	     93,0052	42,1	     93,2402	42,1
     43,2302	      92,795	42,6	       93,06	42,6
     43,2322	     93,1683	42,4	     92,5123	42,2
     43,2341	      93,092	42,7	     92,3195	42,3
     43,2361	     93,0747	42,4	     92,5421	42,4
      43,238	     92,9365	42,6	     92,4608	42,0
       43,24	     91,9922	42,8	     92,7956	42,4
     43,2419	     91,7765	42,5	     92,0273	42,8
     43,2439	     91,5676	42,9	     91,8665	42,8
     43,2458	     91,4198	43,1	     91,2524	42,4
     43,2478	     91,2099	42,9	      90,897	42,4
     43,2498	     91,5701	42,5	     90,6215	42,7
     43,2517	     91,5488	42,7	     91,2027	42,2
     43,2537	     90,9089	42,8	     91,2196	42,5
     43,2556	     90,9161	43,0	     91,0054	43,0
     43,2576	     90,1657	43,4	     90,9052	42,9
     43,2595	     89,9847	43,2	     89,8306	43,0
     43,2615	     90,1148	43,6	     89,7042	43,1
     43,2634	     89,7435	43,3	     89,6874	42,8
     43,2654	     90,2221	42,9	     89,4607	42,7
     43,2673	     90,1267	42,8	     90,0846	42,5
     43,2693	     89,4189	43,1	     89,7858	42,9
     43,2713	     89,3222	43,1	     89,3428	43,0
     43,2732	     88,6857	43,5	     89,3619	43,2
     43,2752	     88,3995	43,6	     88,3494	43,6
     43,2771	      89,006	43,7	     88,2048	43,7
     43,2791	     88,7117	43,9	     88,3874	43,3
      43,281	     88,6942	43,0	     88,3017	43,3
      43,283	     88,5786	43,2	     88,5993	43,1
     43,2849	     87,7809	43,5	     88,6219	43,3
     43,2869	     87,8008	43,4	     87,6234	43,5
     43,2889	     87,1766	43,8	      87,552	43,2
     43,2908	     87,0949	43,5	     86,9686	43,4
     43,2928	     87,6224	43,2	     86,8157	43,9
     43,2947	     87,6101	43,7	     86,9253	43,2
     43,2967	     87,3509	44,5	     86,7184	43,6
     43,2986	     86,8545	43,5	     87,1639	43,4
     43,3006	      86,653	43,4	     86,5273	43,5
     43,3025	     85,8719	44,0	     86,5506	44,1
     43,3045	     85,9686	44,4	     86,4054	43,7
     43,3064	     85,7164	44,1	     85,5409	43,9
     43,3084	     86,3216	43,8	     85,4537	43,7
     43,3104	     86,0928	43,9	     85,7935	43,9
     43,3123	      85,722	43,8	     85,4835	43,6
     43,3143	     85,5941	43,6	     85,7611	43,6
     43,3162	     84,8196	43,9	     85,5401	43,8
     43,3182	      84,728	44,3	      84,946	44,7
     43,3201	     84,5183	44,5	     84,9539	44,4
     43,3221	     84,6336	44,7	     84,1581	44,3
      43,324	     84,3233	44,7	     84,2683	43,8
      43,326	     84,6395	44,5	     84,3034	43,9
      43,328	     84,4297	44,3	     84,6889	43,6
     43,3299	     84,1595	44,0	     84,2378	43,8
     43,3319	     83,4299	44,4	     83,9721	44,0
     43,3338	     83,4552	44,4	     83,8541	44,5
     43,3358	     83,2806	44,6	     83,1178	44,4
     43,3377	     82,9882	45,0	     82,9797	44,9
     43,3397	     83,5182	44,7	     82,8994	44,7
     43,3416	     83,1856	44,9	     82,7252	44,2
     43,3436	     83,0147	44,6	     82,3431	44,2
     43,3456	     82,8318	44,3	     82,9601	44,1
     43,3475	     82,1405	44,8	     82,6455	44,2
     43,3495	     82,1098	44,2	     82,5593	44,6
     43,3514	      82,042	44,8	     82,4047	44,9
     43,3534	     81,7739	45,1	     81,7316	44,9
     43,3553	     81,5514	45,4	     81,6239	45,0
     43,3573	     81,9579	45,0	     81,2304	45,0
     43,3592	     81,9896	44,8	     80,9853	44,8
     43,3612	     81,8492	44,6	     81,4968	44,7
     43,3631	     81,1413	44,6	     81,3426	44,4
     43,3651	     81,1857	44,2	     81,2684	44,9
     43,3671	     80,4735	45,0	     81,3434	44,9
      43,369	     80,4894	45,2	     80,3762	45,0
      43,371	     80,4774	45,2	     80,3599	45,0
     43,3729	     80,2254	45,6	     79,7791	45,2
     43,3749	     80,6378	45,0	      79,631	45,6
     43,3768	      80,485	45,4	     80,2613	45,0
     43,3788	     79,8988	45,4	     80,1765	44,9
     43,3807	     79,8424	44,9	       80,15	45,2
     43,3827	     79,1287	45,6	     80,0622	45,0
     43,3847	     79,1311	45,2	      79,397	44,9
     43,3866	     79,0512	45,5	     79,2449	45,3
     43,3886	     78,8307	45,6	     78,4381	45,4
     43,3905	     79,4739	45,5	     78,2559	45,7
     43,3925	     78,9693	45,6	     78,7881	45,6
     43,3944	     79,1172	45,6	     78,6719	45,6
     43,3964	     78,9789	45,6	     79,2221	45,3
     43,3983	     78,3665	45,6	     78,9146	44,8
     43,4003	      77,642	45,9	     78,6008	44,7
     43,4022	     77,6727	45,5	     78,1277	45,4
     43,4042	     77,7946	45,8	     77,9743	45,8
     43,4062	      77,594	46,1	     77,1857	45,8
     43,4081	     78,1374	45,6	     77,3853	46,1
     43,4101	     77,9115	46,0	     77,2442	45,8
      43,412	     77,6796	46,0	      76,893	45,6
      43,414	     77,4663	45,8	     77,2994	45,0
     43,4159	     77,4537	45,7	     77,3641	45,6
     43,4179	     76,4176	45,8	     77,4556	45,3
     43,4198	     76,7076	45,6	     76,7448	45,7
     43,4218	     76,3244	46,2	     76,4875	45,8
     43,4238	     76,1273	46,4	     76,5385	46,1
     43,4257	     76,4919	46,4	     75,9442	46,5
     43,4277	     76,1604	46,6	     75,8578	46,3
     43,4296	     76,4348	45,9	     75,7559	45,5
     43,4316	     76,2643	45,9	     75,4743	45,8
     43,4335	     75,5061	46,3	      76,129	45,7
     43,4355	     75,5352	45,7	     75,8654	45,8
     43,4374	     74,9899	46,1	     75,9274	46,1
     43,4394	     74,9911	46,2	      75,759	46,1
     43,4413	     74,9464	46,8	     75,0439	46,8
     43,4433	      74,837	47,1	     75,2955	46,4
     43,4453	      75,178	46,7	     74,6105	46,5
     43,4472	     74,7472	46,9	     74,5405	46,1
     43,4492	     74,6693	46,2	     74,4909	45,5
     43,4511	     74,8271	46,2	     74,0895	46,0
     43,4531	     74,2849	45,9	     74,5337	45,6
      43,455	     74,3557	46,2	     74,3642	46,3
      43,457	     73,7075	46,5	     74,2393	46,6
     43,4589	     73,5004	47,0	     74,3067	46,3
     43,4609	     73,6933	46,9	     73,5278	47,1
     43,4629	      73,445	47,1	     73,5505	46,7
     43,4648	     73,9494	46,7	     72,9219	46,4
     43,4668	     73,6153	46,7	     72,6441	46,0
     43,4687	     73,3754	46,3	     73,0782	46,2
     43,4707	     73,3365	46,7	     72,5869	46,5
     43,4726	      73,079	46,2	     73,1068	46,3
     43,4746	     73,2684	46,7	     72,9443	46,2
     43,4765	     72,4761	46,9	     73,1645	46,8
     43,4785	     72,0196	47,4	     73,0055	46,4
     43,4804	     71,9723	46,9	     72,0684	47,1
     43,4824	     72,1333	47,2	     71,9355	46,8
     43,4844	     71,8833	47,1	     71,7918	46,9
     43,4863	     72,4958	46,8	     71,5547	46,9
     43,4883	      72,269	47,1	     71,8198	46,7
     43,4902	     72,3161	46,7	     71,5973	46,7
     43,4922	     72,2801	46,8	     71,9808	46,9
     43,4941	     71,5766	46,5	     71,7924	46,3
     43,4961	     71,6724	46,6	     71,7322	46,5
      43,498	     70,6915	47,3	     71,3863	46,3
        43,5	     71,0876	46,9	     71,5192	46,9

