X-Data [Hz]	Piezo (M - Filtered) [mV]	Phase [Deg]	Piezo (M - Filtered) [mV]	Phase [Deg]	
	002: [07-09-24 14:12]		003: [07-09-24 14:16]	
        40,5	     56,2033	-106,8	     62,8653	-108,2
     40,5029	     58,8216	-107,5	     62,9011	-108,5
     40,5059	     60,8812	-108,1	     62,8614	-108,1
     40,5088	     61,6928	-108,0	     63,0328	-108,0
     40,5117	     62,3876	-108,2	     63,1355	-107,9
     40,5147	      62,551	-108,0	     63,1266	-107,9
     40,5176	     62,9231	-108,2	     63,3079	-108,4
     40,5205	     62,8963	-108,1	     63,4929	-108,0
     40,5235	     63,2065	-107,9	       63,62	-108,1
     40,5264	     63,1622	-108,3	     63,5936	-108,2
     40,5293	     63,4284	-108,2	     63,8727	-108,0
     40,5323	      63,565	-107,7	      63,932	-108,1
     40,5352	     63,6343	-108,1	     63,9474	-107,7
     40,5381	     63,6946	-108,0	     64,1173	-107,8
     40,5411	     63,8118	-108,0	     64,1696	-108,0
      40,544	     63,8567	-108,2	     64,4061	-107,8
     40,5469	     64,0119	-108,0	     64,4709	-108,3
     40,5499	     64,2034	-108,4	     64,5135	-107,6
     40,5528	     64,3727	-107,8	     64,7911	-107,6
     40,5557	     64,3426	-107,9	     64,5952	-107,9
     40,5587	     64,4528	-108,2	     65,0885	-107,9
     40,5616	     64,6326	-107,9	      64,894	-108,1
     40,5645	     64,8371	-108,1	     65,1975	-107,9
     40,5674	     64,8147	-108,1	     65,1689	-107,5
     40,5704	     64,9748	-107,7	     65,4696	-107,7
     40,5733	     64,9439	-107,8	     65,3645	-107,9
     40,5762	     65,3286	-107,8	     65,6425	-107,7
     40,5792	     65,1965	-107,8	     65,6742	-108,0
     40,5821	     65,6292	-107,8	     65,9962	-107,7
      40,585	     65,4747	-107,5	     65,9068	-107,4
      40,588	     65,6536	-107,7	     65,9955	-107,8
     40,5909	     65,8894	-108,0	     66,2508	-107,6
     40,5938	     65,8428	-107,9	     66,1536	-107,4
     40,5968	      66,006	-107,6	     66,4287	-107,8
     40,5997	     66,0271	-107,6	     66,5124	-107,4
     40,6026	     66,2483	-107,6	     66,7925	-107,8
     40,6056	     66,3249	-107,8	     66,6865	-107,7
     40,6085	     66,3742	-107,4	     66,9582	-107,5
     40,6114	     66,5696	-107,6	     66,9954	-107,2
     40,6144	     66,6044	-107,8	     67,0404	-107,6
     40,6173	      66,962	-107,5	      67,351	-107,2
     40,6202	     66,7552	-107,3	     67,2649	-107,7
     40,6232	     67,1319	-107,6	     67,7497	-107,5
     40,6261	     66,9191	-107,2	     67,5198	-107,6
      40,629	     67,5048	-107,5	     67,8004	-107,4
      40,632	     67,2352	-107,7	     67,7792	-107,6
     40,6349	     67,5007	-107,1	     68,1808	-107,2
     40,6378	      67,771	-107,6	     68,1108	-107,5
     40,6408	     67,6881	-107,5	     68,3757	-107,3
     40,6437	     67,9222	-107,3	     68,3444	-107,0
     40,6466	     68,0005	-107,5	     68,5462	-107,2
     40,6496	     68,0244	-107,2	      68,804	-107,3
     40,6525	     68,2578	-107,0	     68,7498	-107,0
     40,6554	     68,5119	-107,6	     68,7593	-107,4
     40,6584	     68,3734	-107,2	     69,2808	-107,4
     40,6613	     68,6508	-107,2	     68,9188	-107,0
     40,6642	     68,6908	-107,3	     69,4926	-107,4
     40,6672	      69,005	-107,0	     69,3404	-106,9
     40,6701	     69,0369	-107,0	     69,5601	-107,0
      40,673	     69,1158	-107,0	      69,562	-106,9
      40,676	     69,2778	-106,9	     69,8725	-107,0
     40,6789	     69,3095	-107,2	     69,9586	-106,8
     40,6818	      69,652	-107,4	     70,0133	-107,2
     40,6847	     69,6104	-107,4	     70,3591	-107,3
     40,6877	     69,7858	-107,4	     70,1966	-106,9
     40,6906	     69,9433	-107,2	     70,5834	-107,1
     40,6936	     69,9567	-107,1	      70,564	-107,1
     40,6965	     70,1588	-107,2	     70,8409	-106,9
     40,6994	      70,264	-107,3	     70,8112	-107,0
     40,7023	     70,4855	-107,0	     71,1561	-106,8
     40,7053	     70,5895	-107,2	     71,0462	-107,0
     40,7082	     70,8724	-107,4	      71,243	-107,2
     40,7111	     70,9212	-107,2	     71,6635	-107,2
     40,7141	     71,0191	-107,1	     71,5004	-107,0
      40,717	     71,2219	-107,2	     71,7686	-107,0
     40,7199	     71,2808	-106,8	     71,9569	-107,3
     40,7229	     71,4416	-107,1	     71,9469	-106,8
     40,7258	     71,5777	-107,3	     72,4143	-106,9
     40,7287	     71,7801	-106,7	     72,2072	-106,9
     40,7317	     72,0146	-107,1	      72,553	-106,7
     40,7346	     71,9092	-107,2	     72,6582	-106,8
     40,7375	     72,1497	-106,9	     72,6431	-106,7
     40,7405	     72,2295	-107,2	      72,989	-106,8
     40,7434	     72,4894	-107,0	     73,0256	-106,6
     40,7463	     72,4231	-106,7	     73,1638	-107,1
     40,7493	     72,6536	-106,8	      73,446	-106,4
     40,7522	     72,8134	-106,8	     73,4882	-106,5
     40,7551	     73,0152	-106,7	      73,584	-106,6
     40,7581	     73,0662	-106,9	     73,7028	-106,5
      40,761	     73,1945	-106,9	     74,0342	-106,5
     40,7639	     73,3687	-106,7	     74,1582	-106,4
     40,7669	     73,5186	-106,4	     74,0382	-106,7
     40,7698	     73,7343	-106,8	     74,3117	-106,3
     40,7727	     73,8613	-106,4	     74,5975	-106,6
     40,7757	     74,0309	-106,5	       74,71	-106,3
     40,7786	     74,0999	-106,4	     74,6494	-106,3
     40,7815	      74,303	-106,5	     74,9451	-106,6
     40,7845	     74,4747	-106,4	     75,1529	-106,7
     40,7874	     74,5404	-106,6	      75,272	-106,2
     40,7903	     74,8741	-106,6	      75,432	-106,7
     40,7933	     74,8689	-106,5	     75,7191	-106,6
     40,7962	     75,1226	-106,3	     75,7485	-106,7
     40,7991	     75,0795	-106,3	     75,9049	-106,1
     40,8021	     75,3597	-106,2	     76,2469	-106,3
      40,805	     75,5689	-106,4	     76,0834	-106,4
     40,8079	     75,6397	-106,7	     76,4876	-106,2
     40,8109	     75,9178	-106,3	     76,5931	-106,1
     40,8138	     75,8958	-106,5	     76,6265	-106,3
     40,8167	     76,1742	-106,5	     76,9284	-105,9
     40,8196	     76,3684	-106,4	     77,0248	-106,3
     40,8226	     76,5281	-106,2	      77,316	-106,2
     40,8255	     76,7454	-106,4	     77,3248	-106,1
     40,8284	     76,7783	-106,5	     77,6624	-105,9
     40,8314	     77,0078	-106,0	        77,6	-106,1
     40,8343	     77,1753	-106,1	     77,9716	-105,8
     40,8372	     77,1905	-106,4	     78,2919	-105,8
     40,8402	     77,5016	-105,7	     78,2994	-106,0
     40,8431	     77,6608	-106,0	     78,4194	-106,4
      40,846	     77,7594	-106,0	     78,6681	-106,1
      40,849	     77,9824	-106,0	     78,5262	-106,2
     40,8519	     78,1704	-105,8	     79,0347	-106,2
     40,8548	     78,3435	-106,0	     79,0941	-105,9
     40,8578	     78,3511	-106,1	     79,3272	-105,7
     40,8607	     78,6326	-106,0	     79,4016	-105,7
     40,8636	     78,8825	-105,9	     79,7753	-105,9
     40,8666	     78,9842	-105,7	     79,7903	-105,3
     40,8695	     79,2162	-105,9	     79,8417	-105,5
     40,8724	     79,3254	-106,1	     80,1871	-105,8
     40,8754	     79,5402	-106,0	     80,3332	-105,9
     40,8783	     79,6859	-106,3	     80,6219	-105,4
     40,8812	     79,9021	-105,8	     80,6517	-105,7
     40,8842	     80,1625	-106,0	     80,8583	-105,8
     40,8871	     80,1915	-105,8	     81,2176	-105,8
       40,89	     80,2647	-105,6	     81,1075	-105,7
      40,893	     80,7355	-105,8	     81,5578	-105,9
     40,8959	     80,7071	-105,8	     81,6222	-105,5
     40,8988	     80,8842	-105,5	     81,8549	-105,6
     40,9018	     81,1961	-105,3	     82,0637	-105,1
     40,9047	     81,1294	-105,5	     82,2111	-105,6
     40,9076	     81,4296	-105,4	     82,3878	-105,2
     40,9106	     81,7182	-105,4	     82,7351	-105,2
     40,9135	     81,7806	-105,6	     82,6425	-105,3
     40,9164	     82,1222	-105,8	     83,0787	-105,6
     40,9194	     82,2475	-105,8	     83,2024	-105,0
     40,9223	     82,3853	-105,2	      83,278	-105,3
     40,9252	     82,6864	-105,7	     83,5127	-105,5
     40,9282	     82,7305	-105,6	     83,7498	-105,4
     40,9311	     82,9663	-105,2	     84,0597	-105,2
      40,934	     83,0167	-105,1	     84,2457	-105,3
      40,937	     83,1927	-105,3	     84,2702	-105,4
     40,9399	     83,4781	-104,9	     84,4215	-105,0
     40,9428	     83,7494	-105,0	     85,0472	-105,3
     40,9457	     83,9076	-105,1	     84,9682	-104,9
     40,9487	      84,142	-105,4	      84,899	-105,1
     40,9516	     84,4211	-104,8	     85,2694	-105,2
     40,9545	     84,6059	-105,0	      85,658	-104,8
     40,9575	     84,7229	-105,5	     85,6703	-105,0
     40,9604	     84,9527	-105,2	     85,9182	-105,3
     40,9633	     85,0369	-105,2	     86,1513	-105,0
     40,9663	      85,443	-105,4	     86,4382	-104,7
     40,9692	     85,5773	-105,3	      86,541	-105,0
     40,9721	      85,604	-104,9	      86,783	-105,1
     40,9751	     85,9633	-104,9	     87,0526	-104,3
      40,978	     86,2207	-105,1	     87,1905	-104,4
     40,9809	     86,2877	-104,8	     87,3924	-104,6
     40,9839	     86,6804	-104,7	     87,5242	-104,4
     40,9868	      86,864	-104,6	     87,9358	-104,6
     40,9897	     87,0386	-104,8	     88,0369	-104,5
     40,9927	      87,226	-104,8	     88,2305	-104,6
     40,9956	     87,5108	-104,7	     88,6182	-104,5
     40,9985	     87,5605	-104,7	     88,7597	-104,5
     41,0015	     87,8256	-104,8	     89,0775	-104,5
     41,0044	     88,1267	-104,5	     89,2884	-104,5
     41,0073	     88,2349	-104,6	      89,409	-104,4
     41,0103	      88,404	-104,6	     89,6459	-104,2
     41,0132	     88,6193	-104,4	     89,9198	-104,1
     41,0161	     89,0655	-104,2	     90,1585	-104,5
     41,0191	     89,1368	-104,2	     90,4865	-104,7
      41,022	     89,4591	-104,5	     90,5321	-104,2
     41,0249	      89,683	-104,9	     90,5765	-104,0
     41,0279	     89,9452	-104,2	     91,2086	-104,6
     41,0308	     90,0842	-104,6	     91,4874	-104,0
     41,0337	     90,2951	-104,4	     91,5616	-103,7
     41,0367	     90,5202	-104,7	     91,7349	-104,0
     41,0396	     90,5805	-104,2	     91,9596	-104,2
     41,0425	      91,019	-104,4	     92,4043	-103,9
     41,0455	     91,2688	-104,4	     92,5888	-103,8
     41,0484	     91,4012	-104,3	     92,7698	-103,9
     41,0513	     91,6438	-104,1	     93,0626	-104,3
     41,0543	     91,9639	-104,2	     93,3734	-104,2
     41,0572	     92,1914	-104,2	     93,6132	-103,7
     41,0601	     92,4439	-104,4	     93,6161	-103,4
      41,063	     92,5923	-104,2	     94,0495	-103,6
      41,066	     92,8854	-103,9	     94,4507	-103,8
     41,0689	     93,2121	-103,7	     94,6727	-103,6
     41,0718	     93,3516	-103,9	     94,8894	-103,6
     41,0748	     93,6609	-103,5	     95,0831	-103,8
     41,0777	     94,0931	-103,6	     95,5716	-103,9
     41,0806	     94,1804	-103,9	     95,7594	-103,6
     41,0836	     94,3594	-104,1	     95,9294	-103,2
     41,0865	      94,793	-104,1	     96,1373	-103,2
     41,0894	     94,8904	-103,7	      96,455	-103,4
     41,0924	     95,3379	-103,7	      96,807	-103,5
     41,0953	      95,477	-103,5	     97,0401	-103,2
     41,0982	     95,7687	-103,5	     97,1421	-103,3
     41,1012	     96,0604	-103,5	     97,6616	-103,2
     41,1041	     96,4045	-103,5	     97,7496	-103,2
      41,107	     96,5231	-103,6	     98,2719	-103,0
       41,11	     96,8868	-103,6	     98,4192	-102,6
     41,1129	     96,9088	-103,5	     98,5553	-103,0
     41,1158	     97,4252	-103,2	      99,063	-103,1
     41,1188	     97,5967	-103,2	     99,2022	-103,0
     41,1217	     97,8793	-103,3	     99,4055	-103,1
     41,1246	     98,1818	-103,0	     99,9393	-102,9
     41,1276	      98,304	-102,9	     100,121	-102,7
     41,1305	     98,7213	-103,3	      100,38	-102,9
     41,1334	      98,883	-103,3	     100,587	-102,6
     41,1364	      99,302	-103,3	         101	-102,7
     41,1393	     99,5446	-103,0	     101,352	-102,7
     41,1422	     99,7464	-102,7	     101,816	-102,7
     41,1452	     100,187	-102,7	     101,939	-102,6
     41,1481	     100,369	-103,0	      102,26	-102,4
      41,151	     100,675	-102,5	     102,725	-102,1
      41,154	     101,231	-102,7	     102,824	-102,2
     41,1569	     101,289	-103,0	      103,13	-102,3
     41,1598	     101,631	-103,0	     103,621	-102,7
     41,1628	     102,197	-102,7	     103,936	-102,4
     41,1657	     102,348	-102,8	     104,243	-102,2
     41,1686	     102,493	-102,4	     104,497	-102,1
     41,1716	     102,767	-102,5	     104,923	-102,3
     41,1745	     103,124	-102,8	     105,087	-101,9
     41,1774	     103,602	-102,4	      105,62	-102,1
     41,1804	     103,873	-102,6	     105,903	-102,1
     41,1833	     104,109	-102,3	     106,013	-102,2
     41,1862	     104,383	-102,1	     106,542	-102,4
     41,1891	     104,853	-102,2	     106,959	-102,0
     41,1921	     105,088	-102,0	       107,1	-101,6
      41,195	     105,374	-101,8	      107,58	-101,8
     41,1979	     105,801	-102,3	     107,778	-101,8
     41,2009	     106,257	-102,2	     108,265	-102,1
     41,2038	     106,373	-102,3	     108,752	-101,9
     41,2067	     106,823	-102,1	     109,083	-101,6
     41,2097	     106,885	-101,8	     109,443	-101,5
     41,2126	     107,396	-101,8	     109,874	-101,5
     41,2155	     107,905	-101,8	      110,21	-101,6
     41,2185	     108,201	-101,9	     110,556	-101,8
     41,2214	     108,556	-101,8	     111,019	-101,3
     41,2243	     108,993	-101,6	     111,449	-101,3
     41,2273	     109,245	-102,0	     111,775	-101,0
     41,2302	     109,545	-101,7	     112,102	-101,0
     41,2331	     109,847	-101,5	      112,35	-101,4
     41,2361	     110,249	-101,5	     112,893	-100,8
      41,239	     110,796	-101,5	      113,28	-100,9
     41,2419	     111,222	-101,7	     113,659	-101,1
     41,2449	     111,517	-101,7	     114,018	-100,7
     41,2478	      111,69	-101,2	     114,592	-100,8
     41,2507	     112,175	-101,2	     114,937	-100,7
     41,2537	     112,713	-101,3	     115,182	-100,6
     41,2566	     113,016	-101,4	     115,727	-100,8
     41,2595	      113,36	-101,4	     116,166	-100,3
     41,2625	     113,746	-101,3	     116,755	-100,7
     41,2654	     114,291	-101,1	     116,953	-100,5
     41,2683	     114,629	-100,7	     117,482	-100,5
     41,2713	     115,165	-100,8	     117,942	-100,2
     41,2742	     115,504	-101,1	     118,349	-100,5
     41,2771	     115,878	-100,7	     118,874	-100,5
     41,2801	     116,393	-100,7	     119,569	-100,2
      41,283	     116,745	-100,6	     119,849	-99,9
     41,2859	     117,207	-100,4	      120,17	-99,7
     41,2889	     117,583	-100,6	     120,778	-99,9
     41,2918	     117,954	-100,3	     121,278	-100,0
     41,2947	     118,448	-100,4	     121,683	-99,7
     41,2977	     118,701	-100,5	     122,086	-99,8
     41,3006	     119,402	-100,5	      122,68	-99,4
     41,3035	      119,77	-100,5	     123,062	-99,2
     41,3064	      120,14	-100,2	     123,418	-99,7
     41,3094	     120,684	-100,2	     124,157	-99,7
     41,3123	     121,161	-100,2	     124,658	-99,6
     41,3153	       121,8	-100,0	     125,254	-99,3
     41,3182	     122,002	-100,1	     125,924	-99,2
     41,3211	      122,42	-99,8	     126,203	-99,1
      41,324	     123,063	-99,9	      126,64	-99,4
      41,327	     123,571	-99,2	     127,322	-99,3
     41,3299	     124,069	-99,4	     128,046	-99,0
     41,3328	     124,615	-99,6	     128,385	-99,1
     41,3358	     125,066	-99,5	     128,878	-98,4
     41,3387	       125,4	-99,5	      129,46	-98,7
     41,3416	     125,946	-99,3	     130,041	-98,4
     41,3446	     126,497	-99,2	     130,597	-98,3
     41,3475	     127,042	-99,2	     131,509	-98,4
     41,3504	     127,772	-99,3	     132,025	-98,1
     41,3534	     128,436	-99,3	     132,544	-98,0
     41,3563	     128,792	-98,9	     133,141	-98,2
     41,3592	     129,235	-98,9	     133,844	-97,9
     41,3622	     129,733	-98,9	     134,448	-97,7
     41,3651	     130,495	-98,8	     135,195	-97,7
      41,368	     130,883	-98,8	     135,892	-97,6
      41,371	     131,525	-98,6	      136,69	-97,7
     41,3739	     132,072	-98,6	      137,27	-97,3
     41,3768	     132,535	-98,2	     137,831	-97,1
     41,3798	     133,265	-98,3	     138,793	-97,4
     41,3827	     133,752	-98,0	     139,389	-97,4
     41,3856	     134,411	-98,1	     140,057	-97,5
     41,3886	     135,098	-97,9	     140,947	-97,0
     41,3915	     135,819	-98,2	      142,12	-96,5
     41,3944	     136,503	-97,6	     143,054	-96,4
     41,3974	     137,159	-97,7	     143,923	-96,4
     41,4003	     137,496	-97,4	     144,473	-96,2
     41,4032	     138,209	-97,1	     144,372	-96,3
     41,4062	     139,009	-97,4	     147,927	-97,3
     41,4091	     139,534	-97,4	     159,943	-98,4
      41,412	     140,258	-97,3	     182,966	-97,9
      41,415	     140,898	-97,0	     218,698	-93,9
     41,4179	     141,741	-97,1	     250,034	-88,7
     41,4208	     142,276	-96,8	     278,642	-82,7
     41,4238	     143,063	-97,0	     302,889	-77,1
     41,4267	     143,975	-96,7	     323,608	-71,9
     41,4296	     144,578	-96,6	     342,634	-66,2
     41,4326	      145,15	-96,2	     354,874	-62,1
     41,4355	     146,106	-96,0	     365,395	-58,5
     41,4384	     146,898	-96,1	     373,709	-55,8
     41,4413	     147,928	-96,3	     380,669	-53,4
     41,4443	     148,644	-96,4	     386,313	-50,8
     41,4472	     149,431	-95,8	     392,086	-48,5
     41,4501	     150,321	-95,4	     395,884	-46,4
     41,4531	     151,136	-95,7	     399,255	-45,0
      41,456	     151,775	-95,5	     402,104	-43,6
     41,4589	     152,812	-95,5	     405,047	-42,4
     41,4619	     153,674	-95,4	     407,238	-40,9
     41,4648	     154,532	-95,1	     409,012	-39,7
     41,4677	     155,422	-94,5	     410,786	-38,8
     41,4707	     156,497	-94,7	     412,245	-37,7
     41,4736	     157,431	-94,5	     413,721	-36,6
     41,4765	     158,275	-94,3	     414,852	-35,4
     41,4795	     159,197	-94,1	     416,037	-34,8
     41,4824	     160,243	-94,3	      416,88	-34,2
     41,4853	     161,319	-94,1	     417,628	-33,2
     41,4883	     162,355	-93,8	     418,409	-32,4
     41,4912	     163,461	-93,4	     419,115	-31,5
     41,4941	      164,62	-93,2	     419,788	-31,1
     41,4971	     165,936	-93,2	     420,079	-30,5
        41,5	     167,084	-93,4	     420,429	-29,6
     41,5029	     168,063	-93,0	     420,642	-29,3
     41,5059	     169,228	-92,8	     420,784	-28,9
     41,5088	     170,481	-92,3	      420,94	-28,6
     41,5117	     171,739	-92,5	      421,17	-28,2
     41,5147	     172,963	-92,1	     421,205	-27,6
     41,5176	     174,705	-91,9	      420,91	-27,5
     41,5205	     175,921	-91,6	      420,01	-26,9
     41,5235	     177,277	-91,5	     419,952	-26,8
     41,5264	     179,012	-91,4	     420,175	-25,9
     41,5293	     180,254	-91,0	      420,46	-25,5
     41,5323	     181,773	-90,7	     420,592	-25,4
     41,5352	     183,311	-89,8	     420,677	-24,8
     41,5381	     185,053	-90,0	     420,382	-24,3
     41,5411	     186,687	-89,7	     420,311	-23,8
      41,544	     188,818	-89,6	     420,001	-23,3
     41,5469	     190,662	-89,2	     419,975	-23,1
     41,5499	     192,643	-88,9	     419,673	-22,9
     41,5528	     194,676	-88,7	      419,64	-22,4
     41,5557	     196,664	-88,1	     419,729	-22,0
     41,5587	     199,269	-87,2	     419,598	-21,9
     41,5616	      201,32	-86,9	     419,315	-21,3
     41,5645	     203,642	-86,7	     418,994	-20,6
     41,5674	     206,474	-86,5	     418,996	-20,3
     41,5704	      208,97	-85,9	     418,948	-20,2
     41,5733	     211,732	-85,2	     418,791	-19,9
     41,5762	     214,966	-84,8	     418,606	-19,6
     41,5792	     218,581	-84,0	     418,246	-19,2
     41,5821	     221,797	-83,1	     417,939	-19,0
      41,585	      225,38	-82,3	     417,647	-18,9
      41,588	     229,732	-81,6	     417,281	-18,4
     41,5909	     235,068	-80,8	     416,858	-18,2
     41,5938	     239,982	-79,9	     416,619	-17,8
     41,5968	     245,471	-78,4	     416,364	-17,5
     41,5997	      251,75	-77,4	     416,139	-17,0
     41,6026	     258,804	-75,9	     415,922	-16,6
     41,6056	     267,918	-73,4	     415,585	-16,5
     41,6085	     276,233	-71,4	     415,231	-16,3
     41,6114	     285,315	-68,9	      414,93	-15,8
     41,6144	     295,364	-66,4	     414,695	-15,8
     41,6173	     309,189	-63,0	     414,363	-15,5
     41,6202	     322,447	-59,1	     413,966	-15,1
     41,6232	     336,717	-54,4	     413,809	-14,6
     41,6261	      351,81	-49,4	     413,509	-14,0
      41,629	      367,18	-43,6	     413,124	-14,2
      41,632	     385,637	-35,8	     412,785	-13,8
     41,6349	     398,693	-29,2	     412,151	-13,7
     41,6378	     408,876	-23,5	     411,704	-13,3
     41,6408	     415,245	-18,7	     411,359	-13,4
     41,6437	     418,039	-14,9	     410,935	-13,1
     41,6466	      417,81	-12,6	      410,84	-12,6
     41,6496	     416,489	-11,8	     410,332	-12,1
     41,6525	     414,749	-11,2	     410,112	-12,4
     41,6554	     413,302	-10,9	     409,529	-11,9
     41,6584	     412,261	-10,7	     409,007	-11,7
     41,6613	     411,477	-11,1	     408,623	-11,1
     41,6642	     410,914	-11,0	     408,221	-11,2
     41,6672	     410,611	-10,5	       407,7	-10,9
     41,6701	     410,116	-10,2	     407,279	-10,5
      41,673	     409,556	-10,2	     406,927	-10,5
      41,676	     409,071	-10,0	     406,382	-10,4
     41,6789	     408,534	-9,6	     405,977	-10,0
     41,6818	     407,996	-9,5	     405,619	-9,7
     41,6847	     407,739	-9,2	     405,346	-9,8
     41,6877	     407,125	-9,1	       404,9	-9,3
     41,6906	     406,506	-8,5	     404,285	-8,7
     41,6936	     405,998	-8,5	     403,931	-8,9
     41,6965	     405,784	-8,4	     403,488	-8,7
     41,6994	     405,297	-7,9	     402,915	-8,4
     41,7023	     404,686	-7,7	     402,503	-8,0
     41,7053	     403,888	-7,5	     402,135	-7,9
     41,7082	     403,571	-7,6	     401,651	-7,8
     41,7111	     402,821	-6,9	     401,094	-7,3
     41,7141	     402,357	-7,0	      400,58	-7,3
      41,717	     401,753	-6,7	     400,338	-7,2
     41,7199	     401,385	-6,9	     399,943	-6,9
     41,7229	     400,906	-6,2	     399,423	-6,5
     41,7258	     400,401	-6,0	     398,969	-6,6
     41,7287	     400,072	-6,1	     398,484	-6,3
     41,7317	     399,367	-5,6	     398,083	-5,7
     41,7346	     398,627	-5,6	      397,66	-5,5
     41,7375	     397,964	-5,4	     397,038	-5,5
     41,7405	     397,216	-5,5	     396,501	-5,2
     41,7434	     396,719	-5,2	     396,108	-5,0
     41,7463	      395,92	-4,9	     395,489	-5,0
     41,7493	     395,356	-4,8	     395,008	-4,9
     41,7522	      394,87	-4,8	     394,401	-4,2
     41,7551	     394,438	-4,6	     394,115	-4,3
     41,7581	     393,958	-4,3	     393,517	-4,3
      41,761	     393,436	-4,4	     393,064	-3,9
     41,7639	     392,914	-3,8	      392,54	-3,8
     41,7669	     392,359	-3,6	     392,105	-4,0
     41,7698	     391,758	-3,3	     391,445	-3,6
     41,7727	     391,231	-3,3	     390,724	-3,1
     41,7757	     390,715	-2,7	     390,344	-2,9
     41,7786	     390,246	-2,8	     389,876	-3,1
     41,7815	       389,6	-2,8	     389,305	-2,6
     41,7845	     389,116	-2,9	     388,926	-2,0
     41,7874	     388,447	-2,3	     388,542	-2,1
     41,7903	     387,905	-2,3	     388,075	-1,8
     41,7933	     387,366	-2,1	     387,551	-1,4
     41,7962	     386,889	-2,1	     387,058	-1,7
     41,7991	     386,456	-1,4	     386,339	-1,8
     41,8021	     385,999	-1,7	     385,565	-1,1
      41,805	     385,489	-1,2	     385,068	-1,0
     41,8079	     384,819	-0,7	     384,709	-0,5
     41,8109	     384,068	-0,6	     384,119	-1,1
     41,8138	     383,589	-0,8	     383,516	-0,6
     41,8167	     383,064	-0,2	     383,163	-0,6
     41,8196	     382,538	-0,2	     382,508	-0,2
     41,8226	     381,891	-0,1	     382,153	 0,0
     41,8255	     381,315	-0,0	     381,742	 0,2
     41,8284	     380,711	 0,3	     381,098	 0,1
     41,8314	     380,158	 0,3	     380,377	 0,4
     41,8343	      379,64	 0,1	     379,847	 0,6
     41,8372	     379,163	 0,6	     379,476	 0,9
     41,8402	     378,698	 0,8	     379,064	 1,2
     41,8431	     378,043	 1,1	     378,397	 1,1
      41,846	     377,354	 1,0	     377,874	 1,5
      41,849	      376,87	 1,5	     377,297	 1,7
     41,8519	     376,066	 1,8	      376,54	 1,9
     41,8548	     375,639	 1,6	     376,168	 2,0
     41,8578	     375,246	 2,1	     375,699	 2,1
     41,8607	     374,693	 2,2	     374,901	 2,3
     41,8636	     374,055	 2,2	     374,565	 2,3
     41,8666	     373,452	 2,6	     373,981	 2,5
     41,8695	     372,692	 2,9	      373,47	 3,0
     41,8724	     372,271	 2,6	     372,685	 2,8
     41,8754	     371,878	 3,1	      372,23	 2,7
     41,8783	     371,127	 3,4	     371,676	 3,4
     41,8812	     370,608	 3,1	     371,308	 3,3
     41,8842	     370,116	 3,2	     370,824	 3,4
     41,8871	     369,504	 3,7	      370,05	 3,7
       41,89	     369,078	 3,9	     369,762	 3,9
      41,893	     368,436	 4,0	     369,141	 3,7
     41,8959	     367,517	 4,0	     368,512	 4,2
     41,8988	     367,144	 4,4	     367,936	 4,3
     41,9018	     366,567	 4,0	     367,578	 4,2
     41,9047	     366,121	 4,7	      366,87	 4,6
     41,9076	     365,442	 4,9	     366,457	 4,7
     41,9106	     364,621	 4,5	     365,963	 4,9
     41,9135	     364,297	 5,1	     365,291	 5,1
     41,9164	     363,788	 5,5	     364,762	 5,1
     41,9194	     363,147	 5,4	       364,3	 5,5
     41,9223	     362,702	 5,5	     363,567	 5,5
     41,9252	     361,987	 5,8	     363,127	 5,8
     41,9282	     361,471	 5,6	     362,623	 5,9
     41,9311	     360,753	 6,1	     361,836	 6,2
      41,934	     360,306	 6,4	     361,333	 6,2
      41,937	     359,537	 6,5	     360,705	 6,5
     41,9399	     359,156	 6,5	     360,162	 6,6
     41,9428	     358,635	 6,8	      359,56	 7,0
     41,9457	     358,083	 6,7	     359,109	 6,7
     41,9487	     357,469	 7,0	     358,504	 7,2
     41,9516	     356,799	 7,5	     357,923	 7,4
     41,9545	     356,118	 7,3	     357,409	 7,3
     41,9575	     355,528	 7,3	     356,837	 7,7
     41,9604	     354,898	 7,7	     356,278	 7,7
     41,9633	     354,362	 7,7	     355,613	 7,8
     41,9663	      353,92	 7,9	     355,002	 8,0
     41,9692	     353,381	 8,3	     354,361	 8,3
     41,9721	      352,77	 8,1	     353,926	 8,3
     41,9751	     352,273	 8,3	     353,264	 8,1
      41,978	     351,589	 8,7	     352,689	 8,7
     41,9809	     351,035	 8,6	     352,266	 8,6
     41,9839	     350,407	 8,6	     351,734	 8,7
     41,9868	     349,779	 9,1	     350,942	 9,1
     41,9897	     349,145	 9,0	     350,384	 9,0
     41,9927	     348,393	 8,8	     349,709	 9,4
     41,9956	     347,855	 9,2	     349,418	 9,4
     41,9985	     347,245	 9,3	     348,705	 9,3
     42,0015	     346,874	 9,5	     348,169	 9,7
     42,0044	     346,067	 9,6	     347,818	10,0
     42,0073	     345,538	 9,7	      346,99	10,0
     42,0103	     345,481	 9,9	     346,516	10,3
     42,0132	       344,7	10,4	     345,772	10,3
     42,0161	     343,874	10,2	     345,335	10,3
     42,0191	     342,983	10,2	     344,763	10,6
      42,022	     342,255	10,4	     344,152	10,7
     42,0249	     341,999	10,3	      343,48	10,6
     42,0279	     341,444	10,7	     343,105	11,2
     42,0308	     340,838	11,1	       342,4	10,9
     42,0337	     340,397	10,9	     341,806	11,4
     42,0367	     339,659	10,9	      341,22	11,4
     42,0396	     339,068	11,4	     340,568	11,4
     42,0425	     338,516	11,3	     340,299	11,6
     42,0455	     337,955	11,8	     339,683	11,9
     42,0484	     337,296	11,9	      339,03	11,9
     42,0513	     336,681	11,7	     338,388	12,5
     42,0543	     335,908	11,8	     337,833	12,4
     42,0572	     335,389	11,8	     337,446	12,3
     42,0601	     334,974	12,2	     336,783	12,7
      42,063	      334,36	12,5	     336,208	12,7
      42,066	     333,694	12,5	     335,452	12,5
     42,0689	     333,005	12,6	     334,826	13,1
     42,0718	     332,365	12,8	     334,394	13,0
     42,0748	     332,017	12,9	     333,902	13,3
     42,0777	       331,2	12,8	     333,236	13,4
     42,0806	     330,488	13,2	     332,604	13,5
     42,0836	      330,11	13,0	     332,192	13,7
     42,0865	     329,675	13,8	     331,719	13,8
     42,0894	     328,877	13,7	     331,153	13,7
     42,0924	     328,212	13,5	     330,481	14,1
     42,0953	     327,708	14,0	     329,742	13,9
     42,0982	     327,112	13,9	     329,009	14,2
     42,1012	     326,542	13,8	     328,583	14,3
     42,1041	     326,051	14,5	     328,263	14,5
      42,107	     325,414	14,4	     327,519	14,7
       42,11	     324,986	15,1	     326,937	14,6
     42,1129	      324,19	14,8	      326,19	14,6
     42,1158	     323,456	14,7	     325,617	14,9
     42,1188	     323,028	15,3	     325,157	14,9
     42,1217	      322,38	15,3	     324,653	15,1
     42,1246	     321,834	15,4	     323,969	15,5
     42,1276	     321,219	15,7	     323,396	15,1
     42,1305	     320,656	15,6	     322,693	15,6
     42,1334	     320,066	16,0	     322,332	15,7
     42,1364	     319,525	15,9	     321,828	15,7
     42,1393	     318,883	16,0	     321,122	15,8
     42,1422	     318,206	16,4	     320,488	16,0
     42,1452	     317,602	16,2	     319,756	16,1
     42,1481	      317,73	16,5	     319,294	16,2
      42,151	     316,847	16,8	     318,666	16,2
      42,154	     315,889	16,8	     318,234	16,7
     42,1569	     315,289	16,9	     317,412	16,6
     42,1598	     314,572	17,0	      316,77	16,7
     42,1628	     314,063	16,9	     316,338	17,1
     42,1657	     313,497	17,2	     315,927	16,9
     42,1686	      312,86	17,4	     315,375	17,4
     42,1716	     312,333	17,2	      314,58	17,4
     42,1745	     311,756	17,4	     314,155	17,4
     42,1774	     311,088	17,5	     313,435	17,7
     42,1804	     310,575	17,7	     312,895	17,5
     42,1833	     309,887	17,8	     312,106	17,9
     42,1862	     309,476	17,8	     311,658	18,2
     42,1891	     308,836	18,1	     311,397	18,0
     42,1921	     308,015	18,1	     310,707	18,2
      42,195	     307,555	18,3	      309,94	18,3
     42,1979	     306,914	18,5	     309,372	18,4
     42,2009	     306,458	18,3	     308,807	18,5
     42,2038	     305,947	19,0	     308,388	18,4
     42,2067	     305,156	18,9	     307,675	18,8
     42,2097	      304,52	18,8	     307,177	18,7
     42,2126	     303,964	19,3	      306,63	19,0
     42,2155	     303,478	19,4	     305,955	19,1
     42,2185	     302,797	19,5	     305,463	19,0
     42,2214	     302,046	19,5	     305,199	19,6
     42,2243	     301,662	19,7	       304,2	19,3
     42,2273	     300,902	19,8	     303,494	19,5
     42,2302	     300,442	19,7	     303,185	19,8
     42,2331	     299,874	20,2	     302,646	19,7
     42,2361	     299,297	19,9	     301,906	20,0
      42,239	     298,786	20,2	      301,51	19,9
     42,2419	      297,98	20,3	     300,674	20,2
     42,2449	       297,4	20,0	      300,14	20,3
     42,2478	     296,982	20,5	     299,701	20,2
     42,2507	     296,378	20,2	     299,113	20,8
     42,2537	     295,767	20,8	     298,405	20,4
     42,2566	     295,025	20,7	     297,804	20,7
     42,2595	     294,651	20,8	     297,477	20,5
     42,2625	     294,042	21,3	     296,781	20,7
     42,2654	     293,357	21,0	     296,267	21,1
     42,2683	     292,697	21,4	     295,658	20,8
     42,2713	     292,132	21,9	     295,167	21,4
     42,2742	     291,691	21,3	     294,628	21,2
     42,2771	     291,172	21,7	     293,885	21,3
     42,2801	     290,404	21,7	     293,466	21,6
      42,283	     289,916	22,0	     293,035	21,7
     42,2859	     289,276	21,8	     292,316	22,0
     42,2889	     288,707	21,9	      291,81	21,9
     42,2918	     287,983	22,3	     291,075	22,1
     42,2947	     287,267	22,0	     290,434	22,1
     42,2977	     286,921	22,3	     289,883	22,1
     42,3006	     286,393	22,2	     289,404	22,6
     42,3035	     285,976	22,9	     288,877	22,1
     42,3064	     285,198	22,5	     288,199	22,5
     42,3094	      284,65	22,5	      287,68	22,4
     42,3123	     284,002	23,1	     287,087	22,8
     42,3153	     283,403	23,1	     286,767	22,7
     42,3182	     282,891	23,4	     286,006	22,7
     42,3211	     282,326	23,6	     285,559	23,3
      42,324	     281,895	23,5	     285,017	23,2
      42,327	     281,134	23,7	      284,35	23,4
     42,3299	     280,695	23,3	     283,864	23,6
     42,3328	     279,971	23,5	     283,198	23,7
     42,3358	     279,417	23,4	     282,691	23,6
     42,3387	     278,688	23,7	     282,049	23,6
     42,3416	     278,216	23,8	     281,568	23,8
     42,3446	     277,823	24,4	     280,854	23,7
     42,3475	     277,288	24,1	     280,442	24,2
     42,3504	     276,551	24,1	     279,738	23,9
     42,3534	     276,198	24,8	     279,324	24,4
     42,3563	     275,598	24,6	     278,865	24,2
     42,3592	     274,816	24,8	     278,167	24,8
     42,3622	     274,289	24,9	     277,432	24,8
     42,3651	     273,815	24,9	     277,038	24,8
      42,368	     273,295	24,9	     276,444	25,1
      42,371	     272,743	24,8	     275,782	24,6
     42,3739	     272,015	25,1	     275,217	25,1
     42,3768	     271,682	25,2	      274,81	24,9
     42,3798	     270,945	25,4	     274,283	25,0
     42,3827	     270,477	25,5	     273,752	25,2
     42,3856	      269,78	26,0	     273,177	25,3
     42,3886	     269,145	25,8	     272,524	25,4
     42,3915	     268,728	25,9	     271,992	25,6
     42,3944	     268,031	26,0	     271,496	26,0
     42,3974	     267,483	26,0	     270,982	25,7
     42,4003	     266,941	25,8	     270,246	26,1
     42,4032	     266,335	26,0	     269,963	26,0
     42,4062	     265,921	26,4	     269,205	26,1
     42,4091	     265,254	26,2	     268,655	26,0
      42,412	     264,608	26,5	     268,002	26,5
      42,415	     264,113	26,5	      267,42	26,5
     42,4179	     263,689	26,7	     266,891	26,5
     42,4208	     263,051	26,8	     266,634	26,9
     42,4238	     262,539	26,9	     265,969	26,6
     42,4267	     261,877	27,3	      265,26	27,2
     42,4296	     261,328	26,9	     264,815	26,9
     42,4326	      260,77	27,1	     264,295	27,3
     42,4355	     260,175	26,9	     263,789	26,8
     42,4384	     259,464	27,3	     262,926	27,0
     42,4413	     259,089	27,3	      262,52	27,1
     42,4443	     258,599	27,4	      262,05	27,5
     42,4472	      258,11	27,8	     261,544	27,5
     42,4501	     257,576	28,0	     260,836	27,8
     42,4531	     256,977	28,2	     260,356	27,6
      42,456	     256,411	28,0	     259,961	27,9
     42,4589	      255,82	28,0	     259,325	28,0
     42,4619	     255,317	28,0	     258,587	27,8
     42,4648	     254,604	28,4	     258,209	28,0
     42,4677	     254,005	28,1	     257,708	28,1
     42,4707	     253,779	28,6	     256,872	28,4
     42,4736	     253,185	28,6	     256,625	28,4
     42,4765	     252,487	28,6	     255,959	28,9
     42,4795	     251,978	28,8	     255,309	28,5
     42,4824	     251,478	29,0	     254,938	28,7
     42,4853	     250,884	29,2	     254,422	28,5
     42,4883	      250,33	28,8	     253,711	28,8
     42,4912	     249,773	29,1	     253,181	28,9
     42,4941	     249,241	29,0	     252,658	29,2
     42,4971	     248,723	29,4	     252,075	29,3
        42,5	     248,181	29,1	     251,531	29,3
     42,5029	      247,74	29,7	     251,174	29,5
     42,5059	      247,28	29,5	      250,57	29,2
     42,5088	     246,616	29,9	     249,805	29,7
     42,5117	     245,993	29,4	     249,392	29,5
     42,5147	     245,501	29,8	     248,979	29,7
     42,5176	     244,871	29,7	     248,198	29,7
     42,5205	     244,428	30,1	     247,803	30,3
     42,5235	     243,913	30,1	     247,358	30,0
     42,5264	     243,289	30,2	     246,696	30,2
     42,5293	     242,871	30,6	     246,118	30,1
     42,5323	     242,347	30,4	     245,588	30,4
     42,5352	     241,609	30,3	      245,03	30,0
     42,5381	     241,477	30,6	     244,514	30,7
     42,5411	     240,711	30,6	     244,083	30,6
      42,544	      240,33	30,7	     243,447	30,8
     42,5469	     239,809	31,2	     243,055	30,8
     42,5499	     239,104	30,9	     242,573	30,9
     42,5528	     238,535	31,4	     241,856	30,9
     42,5557	     238,203	30,8	     241,187	31,0
     42,5587	     237,567	30,9	     240,911	30,9
     42,5616	     237,028	31,2	     240,287	31,4
     42,5645	     236,516	31,4	     239,594	31,3
     42,5674	     236,084	31,3	     239,085	31,5
     42,5704	     235,535	31,8	     238,729	31,8
     42,5733	     235,131	31,6	     238,089	31,6
     42,5762	     234,493	32,0	     237,866	31,4
     42,5792	     234,073	31,6	     236,932	31,4
     42,5821	     233,443	31,9	     236,528	31,8
      42,585	     232,895	32,0	      235,91	32,1
      42,588	     232,363	32,0	     235,485	32,1
     42,5909	     231,615	31,8	      234,94	32,1
     42,5938	     231,427	32,5	     234,475	32,3
     42,5968	     231,076	32,2	     233,979	32,1
     42,5997	     230,479	32,6	     233,501	32,2
     42,6026	     229,877	32,4	     232,847	32,5
     42,6056	     229,424	32,6	     232,267	32,7
     42,6085	     228,791	32,7	     231,743	32,6
     42,6114	     228,263	32,7	     231,223	33,0
     42,6144	     227,676	32,8	      230,78	32,7
     42,6173	     227,526	33,1	     230,383	32,6
     42,6202	      226,79	32,8	     229,609	32,7
     42,6232	     226,319	33,1	     229,277	33,1
     42,6261	     225,742	33,2	     228,621	33,1
      42,629	     225,373	33,4	      228,29	33,4
      42,632	     224,761	33,3	     227,749	33,3
     42,6349	     224,459	33,5	     227,111	33,6
     42,6378	     223,818	33,7	     226,677	33,4
     42,6408	     223,495	33,7	     226,137	33,5
     42,6437	     222,833	33,5	     225,667	33,8
     42,6466	      222,26	33,9	     225,074	33,7
     42,6496	     221,732	33,7	     224,337	34,0
     42,6525	     221,558	34,2	     224,169	34,1
     42,6554	     220,871	34,1	     223,637	33,9
     42,6584	     220,357	34,3	     223,042	33,9
     42,6613	     219,829	34,0	      222,44	34,0
     42,6642	     219,233	34,2	     222,029	34,4
     42,6672	     218,832	34,1	     221,488	34,5
     42,6701	     218,552	34,6	     220,989	34,1
      42,673	     217,956	34,5	     220,474	34,6
      42,676	     217,361	34,8	     219,924	34,3
     42,6789	     216,693	34,8	     219,563	34,7
     42,6818	     216,266	34,7	     219,014	34,6
     42,6847	     215,848	34,6	     218,487	34,9
     42,6877	     215,525	34,8	      217,85	34,7
     42,6906	     215,081	34,9	     217,411	35,1
     42,6936	      214,46	35,4	     217,141	34,7
     42,6965	     213,958	34,9	     216,692	35,2
     42,6994	     213,465	35,4	     216,008	35,0
     42,7023	     212,821	35,0	      215,54	35,5
     42,7053	     212,339	35,4	      215,04	35,2
     42,7082	     212,102	35,5	      214,48	35,4
     42,7111	     211,451	35,9	     213,931	35,5
     42,7141	     210,843	35,3	     213,447	35,8
      42,717	     210,455	35,7	     213,197	35,4
     42,7199	     210,104	35,4	     212,635	35,7
     42,7229	     209,483	36,0	     211,998	35,7
     42,7258	     209,072	36,1	     211,584	35,6
     42,7287	     208,543	36,4	     211,009	36,1
     42,7317	     208,249	36,0	     210,629	36,0
     42,7346	     207,712	36,0	     210,203	36,1
     42,7375	     207,073	36,4	     209,609	36,0
     42,7405	     206,651	36,2	     209,045	36,2
     42,7434	      206,22	36,4	     208,708	36,2
     42,7463	     205,612	36,4	     208,158	36,4
     42,7493	     205,244	36,6	     207,592	36,3
     42,7522	     204,855	36,4	     207,129	36,6
     42,7551	     204,322	36,6	     206,745	36,3
     42,7581	     203,613	36,6	     206,323	36,6
      42,761	      203,28	37,3	     205,579	36,5
     42,7639	     202,818	36,8	     205,293	37,0
     42,7669	     202,401	37,0	      204,83	36,9
     42,7698	     201,871	36,8	     204,392	36,9
     42,7727	     201,421	37,2	     203,915	37,2
     42,7757	     200,974	37,2	      203,38	36,9
     42,7786	     200,482	37,6	     202,736	37,4
     42,7815	       200,1	37,2	     202,356	37,3
     42,7845	     199,725	37,2	     202,129	37,5
     42,7874	     199,266	37,4	     201,516	37,1
     42,7903	     198,783	37,5	     200,978	37,4
     42,7933	     198,301	38,0	     200,508	37,5
     42,7962	     197,895	37,4	     200,243	37,9
     42,7991	     197,265	37,9	     199,531	37,7
     42,8021	      196,77	37,6	     199,186	37,5
      42,805	     196,488	38,0	      198,63	37,8
     42,8079	     196,096	38,0	     198,229	37,8
     42,8109	     195,496	38,2	     197,742	38,1
     42,8138	     194,901	38,3	     197,233	37,9
     42,8167	     194,334	38,0	     196,823	38,0
     42,8196	     194,189	38,3	     196,323	38,2
     42,8226	      193,74	38,3	     195,792	38,3
     42,8255	     193,347	38,6	     195,419	38,5
     42,8284	     192,671	38,3	     195,168	38,1
     42,8314	     192,193	38,6	     194,489	38,5
     42,8343	     191,798	38,5	     194,129	38,5
     42,8372	     191,332	38,9	     193,473	38,7
     42,8402	     190,947	38,6	     193,144	38,6
     42,8431	     190,618	38,9	     192,669	38,8
      42,846	      190,14	39,0	      192,21	38,8
      42,849	     189,426	38,8	     191,773	39,0
     42,8519	     189,198	39,2	     191,376	39,1
     42,8548	     188,658	38,7	     190,803	38,8
     42,8578	     188,269	39,1	     190,226	38,8
     42,8607	     187,904	39,1	     190,151	39,3
     42,8636	     187,361	39,5	     189,655	39,3
     42,8666	     187,117	39,4	     188,999	39,3
     42,8695	     186,591	39,6	     188,392	39,0
     42,8724	     186,215	39,4	     187,965	39,3
     42,8754	     185,534	39,3	     187,789	39,3
     42,8783	      185,31	39,8	     187,301	39,7
     42,8812	      184,77	39,5	     186,879	39,4
     42,8842	     184,375	39,7	     186,251	39,4
     42,8871	     183,916	39,6	     185,946	39,4
       42,89	     183,365	39,9	     185,667	39,8
      42,893	     183,121	40,1	     184,941	40,0
     42,8959	     182,698	39,7	      184,42	39,5
     42,8988	     182,255	40,2	     183,902	40,0
     42,9018	     181,698	39,9	       183,7	39,6
     42,9047	     181,316	40,5	     183,094	40,2
     42,9076	     180,894	40,3	     182,834	40,2
     42,9106	     180,502	40,5	      182,34	40,3
     42,9135	     180,142	40,3	     181,774	40,1
     42,9164	     179,604	40,4	      181,67	40,3
     42,9194	     179,307	40,8	     181,085	40,5
     42,9223	     178,751	40,4	     180,571	40,3
     42,9252	     178,257	40,7	     180,135	40,5
     42,9282	     178,009	40,5	     179,611	40,5
     42,9311	     177,609	40,8	      179,39	40,7
      42,934	     177,071	40,7	      178,83	40,9
      42,937	     176,537	40,7	     178,497	40,5
     42,9399	     176,158	41,0	     178,148	40,9
     42,9428	     175,846	40,9	     177,538	40,6
     42,9457	     175,398	41,1	     177,096	41,1
     42,9487	     175,016	40,9	     176,685	41,0
     42,9516	     174,492	40,9	     176,301	40,8
     42,9545	     174,333	41,5	     175,791	41,2
     42,9575	      173,84	41,3	      175,39	41,1
     42,9604	     173,369	41,2	     175,098	41,2
     42,9633	     172,895	41,2	     174,581	41,3
     42,9663	     172,333	41,4	     174,149	41,2
     42,9692	     172,194	41,6	     173,618	41,6
     42,9721	     171,829	41,3	     173,161	41,4
     42,9751	     171,391	41,6	     172,851	41,6
      42,978	     171,069	41,9	     172,487	41,6
     42,9809	     170,502	41,9	     172,164	41,6
     42,9839	     170,171	42,0	     171,639	41,7
     42,9868	     169,724	41,7	     171,178	41,4
     42,9897	     169,345	42,0	     171,099	41,9
     42,9927	      169,12	41,7	     170,421	41,9
     42,9956	      168,68	42,2	     169,991	42,1
     42,9985	     168,091	42,0	     169,405	42,0
     43,0015	     167,728	41,9	     169,306	41,9
     43,0044	     167,365	42,4	     169,068	42,4
     43,0073	     167,099	42,2	     168,356	42,0
     43,0103	     166,525	42,2	     167,754	41,9
     43,0132	     166,184	42,3	     167,363	42,3
     43,0161	     165,761	42,3	     167,067	42,1
     43,0191	     165,404	42,6	     166,764	42,4
      43,022	     164,976	42,2	     166,488	42,5
     43,0249	     164,691	42,5	     166,022	42,3
     43,0279	     164,368	42,9	     165,691	42,9
     43,0308	      163,92	42,5	     165,192	42,3
     43,0337	     163,473	42,9	     164,768	42,4
     43,0367	     162,983	42,5	     164,444	42,9
     43,0396	       162,6	43,0	     163,953	42,4
     43,0425	     162,369	43,1	     163,736	42,9
     43,0455	     162,008	43,0	     163,211	42,6
     43,0484	     161,541	43,0	     162,912	43,1
     43,0513	     161,237	43,0	     162,411	43,2
     43,0543	     160,893	43,0	     162,142	42,8
     43,0572	     160,503	43,0	     161,693	42,9
     43,0601	     159,917	43,0	     161,271	43,1
      43,063	     159,777	43,6	     160,842	43,0
      43,066	      159,31	43,3	      160,41	43,3
     43,0689	      158,89	43,1	     160,207	43,0
     43,0718	      158,62	43,2	     159,932	43,5
     43,0748	     158,393	43,4	     159,313	43,2
     43,0777	     157,906	43,6	     159,056	43,0
     43,0806	     157,482	43,3	     158,484	43,3
     43,0836	     157,052	43,6	     158,208	43,4
     43,0865	     156,728	43,8	      157,94	43,4
     43,0894	     156,474	43,5	     157,534	43,7
     43,0924	     155,909	43,7	     157,171	43,6
     43,0953	     155,709	43,7	     156,677	44,2
     43,0982	      155,14	43,9	     156,199	43,5
     43,1012	     154,961	43,9	     156,007	43,7
     43,1041	     154,615	43,9	     155,618	43,9
      43,107	     154,071	44,1	     155,252	43,8
       43,11	     153,857	44,3	      154,83	44,1
     43,1129	     153,557	43,9	     154,371	43,9
     43,1158	     153,088	44,0	     154,237	44,0
     43,1188	     152,876	44,4	     153,794	44,1
     43,1217	     152,257	44,1	     153,377	44,1
     43,1246	     152,036	44,2	     152,915	44,2
     43,1276	     151,748	44,3	     152,668	44,6
     43,1305	     151,202	44,5	     152,289	44,0
     43,1334	     150,846	44,4	     152,033	44,3
     43,1364	     150,583	44,3	     151,691	44,6
     43,1393	     150,152	44,8	     151,155	44,4
     43,1422	     149,803	44,6	     150,753	44,5
     43,1452	     149,548	44,1	     150,472	44,5
     43,1481	     149,421	44,8	     150,154	44,6
      43,151	     149,016	44,7	     149,776	44,7
      43,154	     148,501	44,7	     149,565	44,5
     43,1569	     148,132	44,9	     149,098	44,6
     43,1598	     147,619	44,7	     148,591	44,8
     43,1628	     147,442	44,9	     148,354	44,6
     43,1657	     147,183	44,9	     148,059	45,0
     43,1686	     146,848	44,8	     147,543	45,1
     43,1716	     146,389	45,4	     147,192	44,6
     43,1745	     146,093	45,0	      146,97	44,9
     43,1774	     145,729	44,8	      146,44	45,0
     43,1804	      145,61	45,4	     146,231	45,0
     43,1833	     145,072	45,1	     145,929	45,2
     43,1862	     144,675	45,2	     145,382	44,8
     43,1891	     144,322	45,6	     145,335	45,3
     43,1921	      144,11	45,4	     144,831	45,2
      43,195	      143,67	45,4	     144,454	45,2
     43,1979	     143,525	45,5	     144,174	45,5
     43,2009	     143,244	45,6	     143,778	45,5
     43,2038	     142,702	45,8	     143,518	45,0
     43,2067	     142,388	45,5	     143,242	45,5
     43,2097	     141,986	45,5	     142,738	45,6
     43,2126	     141,783	45,6	     142,433	45,3
     43,2155	     141,417	45,6	     142,166	45,7
     43,2185	      140,92	45,4	      141,83	45,7
     43,2214	     140,758	46,0	     141,382	45,4
     43,2243	     140,397	45,8	     141,157	45,7
     43,2273	     140,091	45,6	     140,804	45,6
     43,2302	     139,905	46,0	     140,427	45,7
     43,2331	     139,651	46,0	     140,149	45,9
     43,2361	     139,252	45,7	     140,013	46,0
      43,239	     138,891	46,2	     139,574	46,1
     43,2419	     138,717	46,0	     139,173	45,9
     43,2449	      138,28	46,0	      138,85	45,7
     43,2478	      137,89	46,2	     138,606	45,9
     43,2507	     137,743	46,2	     138,101	46,1
     43,2537	     137,206	46,3	     137,892	45,8
     43,2566	     136,949	46,2	     137,552	46,1
     43,2595	     136,663	46,2	     137,279	46,3
     43,2625	     136,291	46,1	     137,065	45,9
     43,2654	     135,862	46,5	     136,615	46,2
     43,2683	     135,627	46,3	     136,279	46,5
     43,2713	     135,487	46,3	     136,059	46,1
     43,2742	     135,027	46,5	     135,738	46,3
     43,2771	     134,727	46,2	     135,199	46,6
     43,2801	     134,592	46,6	     134,953	46,2
      43,283	      134,22	46,7	     134,597	46,4
     43,2859	     133,849	46,6	     134,487	46,8
     43,2889	      133,66	46,7	       134,1	46,3
     43,2918	     133,259	46,8	     133,862	46,5
     43,2947	     132,985	46,5	     133,553	47,0
     43,2977	      132,72	46,9	     133,214	46,4
     43,3006	     132,198	46,8	     132,933	46,6
     43,3035	      132,25	46,9	     132,556	46,9
     43,3064	     131,814	47,0	      132,21	46,5
     43,3094	     131,523	47,0	     131,999	46,6
     43,3123	     131,302	46,9	     131,699	47,2
     43,3153	     130,748	47,0	     131,403	46,7
     43,3182	     130,446	46,8	     130,969	46,8
     43,3211	     130,309	46,7	     130,764	47,3
      43,324	     130,162	47,1	     130,594	46,9
      43,327	      129,64	47,3	     130,225	46,8
     43,3299	     129,354	47,3	     129,812	47,2
     43,3328	      129,04	47,2	     129,555	47,0
     43,3358	     128,893	47,2	     129,183	46,8
     43,3387	     128,678	47,4	     128,957	47,3
     43,3416	     128,229	47,3	     128,618	47,3
     43,3446	     128,067	47,3	     128,357	46,9
     43,3475	     127,585	47,5	      128,13	47,5
     43,3504	     127,388	47,3	     127,772	47,3
     43,3534	     127,087	47,2	     127,575	47,1
     43,3563	     126,909	47,4	     127,193	47,4
     43,3592	     126,528	47,3	     126,914	47,6
     43,3622	     126,221	47,4	     126,718	47,0
     43,3651	     126,082	47,5	     126,476	47,4
      43,368	      125,81	47,5	     125,956	47,6
      43,371	     125,486	47,7	     125,853	47,3
     43,3739	     125,064	47,7	     125,664	47,6
     43,3768	     124,942	47,7	     125,216	47,7
     43,3798	     124,853	47,5	     124,859	47,5
     43,3827	     124,229	47,9	     124,799	47,5
     43,3856	     124,116	47,8	     124,435	47,8
     43,3886	     123,846	47,6	     124,109	47,6
     43,3915	     123,372	48,0	     123,871	47,6
     43,3944	     123,315	48,0	     123,608	47,7
     43,3974	     123,102	47,6	     123,262	48,0
     43,4003	     122,689	48,1	     123,034	47,8
     43,4032	     122,404	48,2	     122,604	47,9
     43,4062	     122,164	47,7	     122,491	48,1
     43,4091	     121,864	48,0	     122,402	48,0
      43,412	     121,533	48,5	     121,933	47,7
      43,415	     121,401	48,0	     121,784	48,3
     43,4179	      121,25	48,0	     121,448	48,1
     43,4208	     120,671	48,5	     120,907	47,8
     43,4238	     120,534	48,0	     121,022	48,2
     43,4267	     120,492	48,2	      120,53	48,2
     43,4296	     120,026	48,1	     120,116	48,1
     43,4326	     119,777	48,3	     120,207	48,3
     43,4355	     119,531	48,4	      119,77	48,3
     43,4384	     119,234	48,1	     119,454	48,1
     43,4413	     118,976	48,4	     119,356	48,2
     43,4443	     118,776	48,4	     119,026	48,1
     43,4472	     118,549	48,2	     118,592	48,4
     43,4501	     118,038	48,5	     118,689	48,1
     43,4531	     117,954	48,8	      118,22	48,2
      43,456	     117,802	48,3	     117,972	48,6
     43,4589	     117,525	48,4	     117,545	48,5
     43,4619	     117,289	48,8	     117,487	48,2
     43,4648	     117,066	48,6	     117,451	48,6
     43,4677	     116,678	48,6	     116,936	48,5
     43,4707	     116,536	48,5	      116,58	48,3
     43,4736	     116,231	48,9	     116,619	48,7
     43,4765	     115,939	48,6	     116,041	48,6
     43,4795	     115,793	48,9	     115,878	48,7
     43,4824	      115,39	49,0	     115,453	48,5
     43,4853	     115,188	48,9	     115,379	48,8
     43,4883	     114,932	48,6	     115,049	48,9
     43,4912	     114,681	49,0	     114,918	48,6
     43,4941	     114,614	49,0	     114,608	48,7
     43,4971	     114,394	48,9	     114,276	48,9
        43,5	     114,009	49,2	     113,884	49,0

