X-Data [Hz]	Piezo (M - Filtered) [mV]	Phase [Deg]	Piezo (M - Filtered) [mV]	Phase [Deg]	
	002: [07-09-24 18:15]		003: [07-09-24 18:17]	
        41,5	      384,65	-98,4	     419,826	-99,6
      41,502	     392,556	-98,4	     421,261	-99,6
     41,5039	     400,659	-97,5	     423,227	-100,1
     41,5059	     410,855	-98,7	     422,864	-98,3
     41,5078	     415,071	-98,7	     423,037	-99,3
     41,5098	      419,52	-99,2	     424,367	-98,1
     41,5117	     421,596	-99,6	     426,065	-98,8
     41,5137	     420,819	-98,0	     427,803	-98,7
     41,5156	      421,83	-98,5	     427,341	-98,9
     41,5176	     423,064	-98,4	      428,95	-98,9
     41,5196	     424,814	-98,8	     428,757	-97,8
     41,5215	     425,405	-98,1	     431,433	-99,4
     41,5235	     427,536	-97,6	     431,677	-98,5
     41,5254	      428,63	-98,5	     432,264	-99,4
     41,5274	     428,709	-97,8	     432,819	-99,4
     41,5293	     430,743	-99,1	     433,863	-98,3
     41,5313	     431,231	-99,0	     435,963	-98,6
     41,5332	      431,66	-98,4	     437,391	-98,2
     41,5352	     432,034	-98,7	     438,457	-98,7
     41,5371	     433,187	-97,8	     437,063	-97,7
     41,5391	     433,689	-98,1	     436,638	-98,4
     41,5411	     435,244	-97,9	     438,658	-98,0
      41,543	     436,952	-98,5	     440,486	-97,6
      41,545	     436,118	-97,7	     443,589	-98,9
     41,5469	     437,619	-97,3	     444,421	-98,4
     41,5489	     438,913	-99,1	     444,053	-98,1
     41,5508	     439,109	-97,8	      443,34	-98,2
     41,5528	     441,367	-98,4	     443,826	-98,0
     41,5547	     441,804	-98,0	     446,038	-98,2
     41,5567	     441,965	-98,1	     448,156	-98,6
     41,5587	     442,184	-98,0	     450,542	-98,4
     41,5606	     444,364	-97,6	     450,255	-99,0
     41,5626	     445,436	-98,4	     450,185	-97,3
     41,5645	     446,719	-97,2	     450,923	-98,3
     41,5665	     447,719	-97,9	     453,452	-97,7
     41,5684	     448,507	-98,2	     455,479	-98,2
     41,5704	     449,595	-97,2	     455,655	-98,3
     41,5723	     451,061	-97,5	     455,211	-97,4
     41,5743	      452,29	-97,6	     456,023	-97,7
     41,5762	     452,504	-97,6	     457,528	-97,4
     41,5782	     453,758	-97,3	     460,046	-97,8
     41,5802	      453,98	-97,0	       460,1	-97,8
     41,5821	     456,429	-97,6	     460,173	-97,5
     41,5841	     456,913	-97,0	     461,119	-97,7
      41,586	     457,232	-98,0	     463,355	-96,6
      41,588	     458,506	-98,0	     464,144	-96,8
     41,5899	     460,417	-96,9	     465,563	-97,3
     41,5919	     461,124	-97,3	     465,876	-96,8
     41,5938	     461,928	-96,7	     467,358	-97,9
     41,5958	     462,872	-97,6	     469,186	-97,3
     41,5978	     463,171	-96,9	     469,603	-97,1
     41,5997	     465,471	-97,0	     470,189	-96,7
     41,6017	     465,962	-96,4	     470,962	-97,6
     41,6036	     467,636	-96,4	     470,889	-98,2
     41,6056	     469,118	-97,9	     473,358	-96,7
     41,6075	     469,469	-96,8	     474,924	-96,5
     41,6095	     470,846	-97,6	     475,957	-95,9
     41,6114	     471,759	-97,2	     476,489	-96,5
     41,6134	     470,695	-96,7	     478,233	-97,8
     41,6153	     473,519	-96,5	     480,029	-96,6
     41,6173	     474,977	-96,9	     481,644	-97,4
     41,6193	     475,165	-97,0	     482,767	-96,4
     41,6212	     476,992	-97,2	     482,444	-96,3
     41,6232	     477,865	-96,0	     482,917	-96,9
     41,6251	     479,227	-96,8	     484,343	-96,1
     41,6271	     480,485	-96,1	     486,723	-97,3
      41,629	     481,874	-95,9	     487,452	-97,4
      41,631	     482,033	-96,5	     487,993	-96,3
     41,6329	     482,996	-96,3	     489,073	-96,5
     41,6349	     485,317	-96,6	     491,085	-95,4
     41,6369	     485,286	-96,2	     493,333	-96,6
     41,6388	     487,398	-96,0	     494,758	-96,7
     41,6408	     488,702	-95,9	     495,944	-95,6
     41,6427	     490,412	-95,8	     495,448	-96,4
     41,6447	     492,049	-96,4	     497,005	-95,8
     41,6466	     491,877	-95,9	     498,408	-96,7
     41,6486	     493,682	-95,5	     499,247	-95,5
     41,6505	     493,649	-95,9	     500,905	-96,8
     41,6525	     494,495	-95,4	     503,008	-96,4
     41,6544	     497,108	-96,4	     503,904	-95,4
     41,6564	     497,916	-96,5	     504,411	-95,7
     41,6584	     498,232	-95,8	     506,757	-95,0
     41,6603	     499,972	-96,3	     507,937	-94,8
     41,6623	     501,112	-94,6	     508,001	-96,0
     41,6642	     502,131	-95,0	     508,834	-95,8
     41,6662	     504,906	-95,5	     511,646	-95,9
     41,6681	     506,381	-95,4	     513,612	-95,9
     41,6701	     508,373	-95,6	     513,398	-94,7
      41,672	     509,487	-95,6	     515,377	-95,0
      41,674	     509,653	-95,2	     516,863	-94,7
      41,676	     509,222	-95,1	     517,848	-94,9
     41,6779	      509,95	-95,0	     518,492	-95,8
     41,6799	     512,593	-95,3	     520,037	-94,7
     41,6818	     514,506	-94,9	     522,194	-95,0
     41,6838	     516,097	-94,5	     522,106	-95,1
     41,6857	     518,127	-94,7	     525,349	-94,4
     41,6877	     518,428	-94,1	      525,52	-95,4
     41,6896	     519,894	-95,3	      527,37	-94,6
     41,6916	     519,732	-94,7	      528,77	-95,4
     41,6936	      522,03	-95,3	     529,952	-94,4
     41,6955	      523,81	-95,8	     531,442	-94,0
     41,6975	     525,603	-93,7	     534,111	-95,1
     41,6994	     527,317	-94,1	     535,362	-94,2
     41,7014	      527,69	-93,8	     536,465	-95,4
     41,7033	     528,206	-93,8	     537,158	-95,0
     41,7053	     530,233	-95,3	     537,538	-94,3
     41,7072	     530,994	-95,1	      539,77	-94,7
     41,7092	     531,928	-94,3	     541,303	-94,3
     41,7111	     533,302	-94,1	     541,945	-94,2
     41,7131	     535,943	-94,2	     544,113	-94,3
     41,7151	     538,573	-94,4	     546,433	-94,1
      41,717	     540,059	-93,9	     548,416	-94,4
      41,719	     540,908	-94,4	     550,006	-93,7
     41,7209	     541,576	-93,7	     550,178	-93,1
     41,7229	      542,85	-93,4	     551,583	-93,7
     41,7248	     543,483	-93,8	     553,629	-93,2
     41,7268	     546,253	-93,1	     556,134	-93,3
     41,7287	     548,459	-92,9	     558,142	-94,4
     41,7307	     550,211	-94,4	     559,453	-94,0
     41,7327	     550,093	-93,9	     558,172	-94,1
     41,7346	     551,432	-94,1	     560,016	-93,6
     41,7366	     551,196	-94,0	     561,922	-93,0
     41,7385	      553,24	-92,6	     564,431	-93,1
     41,7405	     554,399	-93,8	     566,397	-93,3
     41,7424	     556,105	-93,2	     567,362	-93,2
     41,7444	     559,621	-93,6	     569,788	-93,5
     41,7463	     560,842	-93,7	     572,096	-92,6
     41,7483	     562,796	-92,5	     573,144	-92,9
     41,7502	     564,718	-93,0	     573,887	-93,1
     41,7522	     566,811	-92,4	     576,013	-92,7
     41,7542	     567,432	-92,1	     578,362	-93,0
     41,7561	     568,587	-93,0	     579,057	-92,7
     41,7581	     570,125	-92,7	     581,437	-92,8
       41,76	     571,127	-92,9	      584,21	-93,0
      41,762	     572,521	-92,6	     586,291	-92,5
     41,7639	      575,52	-92,2	     587,179	-92,5
     41,7659	     577,492	-92,5	     589,066	-92,6
     41,7678	     577,486	-92,1	     590,941	-92,1
     41,7698	     580,402	-92,2	     592,517	-92,5
     41,7718	     582,609	-92,7	      595,25	-92,1
     41,7737	     583,381	-92,1	     596,487	-92,1
     41,7757	     583,844	-92,3	     598,564	-91,6
     41,7776	     584,668	-91,7	     599,413	-91,7
     41,7796	     586,766	-91,1	     601,008	-91,9
     41,7815	     589,772	-91,9	     602,108	-91,8
     41,7835	     592,589	-91,9	      603,66	-91,5
     41,7854	     595,451	-92,1	     605,635	-92,0
     41,7874	     595,809	-92,4	     609,481	-91,7
     41,7893	     596,887	-90,7	     611,192	-91,1
     41,7913	     599,459	-91,7	      612,81	-91,3
     41,7933	     601,377	-91,7	      613,35	-90,8
     41,7952	     602,482	-90,9	     616,104	-91,3
     41,7972	     605,079	-90,7	     617,438	-91,3
     41,7991	     606,688	-91,4	     619,104	-91,1
     41,8011	     607,117	-91,1	     621,176	-91,8
      41,803	     610,676	-91,8	     624,197	-90,2
      41,805	     612,095	-91,2	     626,488	-90,7
     41,8069	     614,291	-90,5	     629,305	-90,5
     41,8089	     615,644	-91,0	     629,701	-90,1
     41,8109	     617,234	-90,0	     631,799	-90,8
     41,8128	     620,415	-90,6	     633,597	-90,8
     41,8148	     621,625	-90,7	     637,443	-90,6
     41,8167	     623,283	-90,0	     638,999	-90,1
     41,8187	     624,331	-90,2	     641,546	-90,6
     41,8206	     626,427	-90,0	     642,921	-90,5
     41,8226	     627,742	-90,3	     645,124	-90,2
     41,8245	     631,072	-90,0	     645,713	-89,9
     41,8265	     633,979	-89,7	     648,461	-90,3
     41,8284	     636,523	-89,8	     650,885	-89,8
     41,8304	     638,584	-90,1	     652,846	-89,6
     41,8324	     640,159	-90,0	     655,028	-90,2
     41,8343	     640,935	-90,2	     657,713	-90,0
     41,8363	     642,676	-89,6	      660,12	-89,2
     41,8382	      644,58	-89,4	     662,023	-89,2
     41,8402	     646,826	-89,6	     664,589	-89,8
     41,8421	     650,842	-89,1	     666,783	-88,8
     41,8441	     652,702	-89,5	     669,066	-89,4
      41,846	     654,682	-89,6	     671,581	-89,2
      41,848	     656,633	-89,5	     672,581	-89,3
       41,85	      658,86	-89,0	     675,043	-89,2
     41,8519	     659,968	-89,1	     677,398	-88,3
     41,8539	     662,134	-88,3	     680,121	-88,1
     41,8558	     664,911	-88,4	     684,879	-88,6
     41,8578	     668,952	-88,5	     685,774	-87,8
     41,8597	     670,222	-88,5	     689,076	-88,6
     41,8617	     673,576	-88,8	     692,223	-88,4
     41,8636	     675,661	-88,3	     693,523	-88,0
     41,8656	     678,218	-88,0	     695,796	-88,2
     41,8675	     680,095	-88,0	     697,463	-87,2
     41,8695	     682,678	-87,6	     699,088	-87,4
     41,8715	     685,481	-87,5	     703,591	-87,8
     41,8734	     685,847	-88,0	     705,983	-87,3
     41,8754	     689,163	-87,9	     709,408	-87,6
     41,8773	     691,855	-87,6	     711,785	-87,2
     41,8793	     695,217	-87,9	     713,806	-86,8
     41,8812	     694,476	-87,5	     715,707	-87,4
     41,8832	     697,428	-87,3	     719,467	-86,9
     41,8851	     699,849	-86,6	     721,167	-86,4
     41,8871	     702,702	-87,1	     724,398	-85,8
     41,8891	     705,252	-86,7	     727,819	-86,6
      41,891	     708,026	-86,7	     730,672	-86,3
      41,893	     711,701	-86,6	     733,286	-86,5
     41,8949	     715,584	-86,8	     735,903	-86,3
     41,8969	     717,192	-86,9	      738,37	-86,1
     41,8988	     719,762	-86,4	     742,324	-85,9
     41,9008	     721,198	-85,6	     745,201	-85,8
     41,9027	     724,058	-85,3	     748,471	-85,3
     41,9047	     727,916	-87,2	     751,703	-85,8
     41,9066	     730,779	-86,5	     754,476	-85,4
     41,9086	      735,21	-86,0	     757,447	-85,5
     41,9106	     736,151	-86,4	     760,181	-85,8
     41,9125	     737,943	-84,7	     764,027	-85,1
     41,9145	     740,866	-84,8	     766,539	-85,2
     41,9164	     744,157	-85,2	     770,842	-85,2
     41,9184	     747,798	-84,5	     773,656	-84,6
     41,9203	     751,071	-84,3	     775,836	-84,0
     41,9223	     753,991	-85,8	     778,099	-84,5
     41,9242	     754,406	-85,3	     782,339	-83,6
     41,9262	     758,652	-85,1	     784,729	-83,9
     41,9282	     761,035	-84,4	     788,867	-84,6
     41,9301	     764,291	-84,4	     790,649	-83,9
     41,9321	     768,291	-84,2	     794,609	-83,9
      41,934	     770,893	-83,9	     799,155	-84,3
      41,936	       774,5	-83,4	     803,777	-82,5
     41,9379	     776,856	-84,0	     806,784	-83,1
     41,9399	     780,725	-83,9	     809,611	-82,6
     41,9418	     784,013	-83,8	     812,101	-82,5
     41,9438	     786,116	-83,9	     817,756	-83,5
     41,9457	     789,001	-83,1	     820,647	-83,0
     41,9477	     791,517	-83,1	     824,877	-82,7
     41,9497	     795,202	-82,8	     829,444	-82,7
     41,9516	     798,354	-83,0	     833,894	-81,2
     41,9536	     801,157	-82,9	     836,566	-81,6
     41,9555	     805,018	-82,9	     842,653	-81,8
     41,9575	     809,957	-82,4	     845,946	-81,1
     41,9594	     813,075	-82,2	     848,676	-81,8
     41,9614	     817,514	-82,6	     851,719	-81,7
     41,9633	     821,598	-81,9	     854,964	-81,0
     41,9653	      824,73	-81,8	     859,057	-81,2
     41,9673	     826,935	-81,4	     863,955	-80,5
     41,9692	     831,244	-80,5	     867,242	-80,2
     41,9712	     834,777	-81,1	      872,26	-80,1
     41,9731	     836,527	-81,4	     876,719	-79,6
     41,9751	     840,563	-80,9	     879,364	-79,4
      41,977	     844,363	-80,6	      884,62	-79,8
      41,979	     849,214	-81,3	     888,016	-79,9
     41,9809	     852,607	-80,3	     894,234	-79,2
     41,9829	     857,434	-80,0	     897,833	-79,4
     41,9848	     859,742	-80,5	     902,962	-79,1
     41,9868	     862,358	-79,4	     906,118	-78,6
     41,9888	      865,06	-78,9	     910,027	-78,5
     41,9907	     870,612	-79,5	     914,183	-78,6
     41,9927	     874,684	-79,1	     920,071	-78,0
     41,9946	     879,537	-79,9	     925,516	-78,1
     41,9966	     883,029	-79,6	     932,863	-77,7
     41,9985	     886,769	-78,7	     936,611	-77,5
     42,0005	      888,88	-79,3	     940,872	-77,8
     42,0024	      893,33	-78,0	     946,702	-77,4
     42,0044	     897,809	-77,5	      952,28	-76,2
     42,0064	     902,656	-78,4	     956,002	-76,8
     42,0083	     906,331	-77,6	     961,205	-75,7
     42,0103	     911,472	-76,8	     964,174	-75,0
     42,0122	     915,374	-77,4	     969,872	-76,0
     42,0142	     920,192	-77,6	     974,964	-75,7
     42,0161	     924,175	-76,8	      980,86	-75,9
     42,0181	     929,895	-77,1	     986,204	-75,9
       42,02	      933,56	-77,0	     992,786	-74,6
      42,022	     938,775	-75,7	     996,321	-74,7
     42,0239	     942,204	-76,0	     1002,48	-74,9
     42,0259	     945,828	-76,2	     1008,62	-74,0
     42,0279	     951,431	-74,7	        1015	-73,9
     42,0298	     955,907	-74,8	     1020,84	-73,4
     42,0318	     960,818	-75,2	     1027,89	-72,8
     42,0337	     966,989	-74,8	     1031,65	-72,7
     42,0357	      971,91	-75,3	     1038,74	-73,2
     42,0376	     976,973	-74,2	     1045,58	-72,4
     42,0396	     981,428	-74,1	     1050,44	-72,6
     42,0415	     986,973	-74,0	     1057,95	-72,3
     42,0435	     990,134	-73,9	     1063,73	-71,3
     42,0455	     995,798	-72,9	     1069,36	-71,1
     42,0474	     1000,36	-72,7	     1073,86	-71,1
     42,0494	     1004,31	-73,3	     1081,69	-70,1
     42,0513	     1010,34	-72,3	     1087,44	-69,6
     42,0533	     1014,87	-72,1	     1096,25	-70,3
     42,0552	     1020,97	-72,4	     1103,05	-69,4
     42,0572	     1025,09	-72,1	     1109,83	-69,5
     42,0591	     1031,51	-72,3	     1118,83	-69,4
     42,0611	     1035,33	-72,1	     1124,38	-68,8
      42,063	     1040,78	-70,6	     1130,38	-68,2
      42,065	     1045,81	-70,6	      1136,8	-68,7
      42,067	      1052,7	-70,4	     1146,14	-67,0
     42,0689	     1055,86	-69,5	     1151,45	-66,1
     42,0709	     1062,52	-70,0	     1158,36	-66,6
     42,0728	     1067,79	-69,3	     1166,91	-66,5
     42,0748	     1073,53	-69,1	     1172,53	-65,6
     42,0767	     1079,24	-68,9	     1181,18	-66,5
     42,0787	     1085,98	-69,4	     1187,85	-65,5
     42,0806	     1091,63	-68,8	     1195,95	-64,9
     42,0826	     1099,33	-68,0	     1201,28	-64,9
     42,0846	     1104,98	-68,2	     1207,43	-63,6
     42,0865	     1110,25	-67,7	     1214,84	-63,2
     42,0885	     1116,38	-66,4	     1223,19	-62,8
     42,0904	     1121,77	-66,6	     1229,36	-62,6
     42,0924	      1128,5	-66,0	     1235,63	-62,5
     42,0943	     1134,07	-65,3	     1241,82	-62,1
     42,0963	      1141,8	-66,0	     1250,61	-61,7
     42,0982	     1147,45	-65,9	     1257,54	-61,0
     42,1002	     1153,91	-65,1	     1267,04	-61,5
     42,1021	     1161,93	-65,5	     1273,19	-60,7
     42,1041	      1166,3	-64,7	     1280,74	-59,6
     42,1061	     1173,38	-63,1	     1287,06	-59,4
      42,108	     1179,23	-64,0	     1295,72	-58,5
       42,11	     1185,09	-63,7	      1301,8	-58,2
     42,1119	     1190,27	-62,3	     1310,55	-58,2
     42,1139	     1196,52	-61,4	     1316,52	-57,5
     42,1158	     1204,53	-61,9	     1323,62	-56,9
     42,1178	     1210,13	-61,2	     1330,15	-56,5
     42,1197	     1217,85	-61,2	     1337,16	-56,6
     42,1217	     1223,25	-61,9	     1343,39	-55,8
     42,1237	     1232,27	-60,4	     1350,51	-56,0
     42,1256	     1237,72	-59,8	     1355,74	-55,7
     42,1276	      1244,5	-59,6	     1362,78	-54,0
     42,1295	     1250,67	-59,3	     1369,31	-53,8
     42,1315	     1256,69	-58,7	     1375,76	-52,9
     42,1334	     1264,12	-58,5	      1381,1	-52,5
     42,1354	     1269,82	-58,1	     1386,82	-52,1
     42,1373	     1277,15	-56,7	     1391,72	-51,8
     42,1393	      1286,5	-57,1	     1399,61	-51,4
     42,1413	      1292,2	-56,3	     1404,51	-51,1
     42,1432	     1301,19	-55,9	     1408,31	-50,5
     42,1452	     1306,63	-55,7	     1415,11	-50,3
     42,1471	     1312,32	-55,6	     1421,95	-50,1
     42,1491	      1318,2	-54,6	     1426,97	-49,9
      42,151	     1323,22	-54,3	        1432	-48,0
      42,153	     1332,11	-54,4	     1435,61	-48,0
     42,1549	     1337,56	-53,9	     1439,73	-47,6
     42,1569	     1346,12	-52,2	     1446,42	-47,3
     42,1588	      1351,1	-52,7	     1450,15	-46,4
     42,1608	     1357,62	-51,0	     1455,67	-46,6
     42,1628	     1362,29	-50,8	     1459,47	-46,0
     42,1647	     1370,24	-51,0	     1464,96	-45,1
     42,1667	     1378,09	-49,9	      1469,5	-44,7
     42,1686	     1383,29	-49,4	     1475,01	-45,2
     42,1706	     1390,18	-50,1	     1478,15	-44,4
     42,1725	     1396,05	-49,1	     1483,28	-43,8
     42,1745	      1404,7	-48,2	     1488,69	-43,8
     42,1764	     1410,02	-48,4	     1492,24	-42,6
     42,1784	     1414,64	-47,4	     1495,39	-41,8
     42,1804	     1421,38	-46,6	     1499,33	-41,6
     42,1823	     1426,59	-46,8	     1502,17	-41,4
     42,1843	     1432,32	-45,7	     1506,58	-40,4
     42,1862	     1437,82	-45,4	     1508,81	-40,2
     42,1882	      1442,5	-44,4	     1514,87	-39,9
     42,1901	     1446,31	-44,0	     1516,31	-39,2
     42,1921	     1452,54	-43,6	      1518,4	-39,8
      42,194	     1455,96	-42,8	     1520,74	-39,2
      42,196	     1464,42	-43,3	     1524,59	-38,3
     42,1979	     1469,17	-42,8	     1526,51	-38,0
     42,1999	     1474,93	-41,8	     1530,53	-37,8
     42,2019	     1478,85	-41,2	     1534,05	-36,9
     42,2038	     1483,09	-41,1	     1537,28	-36,3
     42,2058	     1488,38	-40,8	     1538,77	-36,3
     42,2077	     1492,53	-40,4	     1540,27	-36,1
     42,2097	     1495,31	-39,9	     1540,84	-34,6
     42,2116	     1498,41	-38,6	     1543,21	-34,4
     42,2136	     1502,33	-37,8	     1546,22	-34,2
     42,2155	      1506,8	-37,7	     1550,08	-33,4
     42,2175	     1508,85	-37,5	     1551,42	-33,0
     42,2195	     1514,85	-36,5	     1553,55	-33,6
     42,2214	     1517,51	-36,1	     1554,87	-32,8
     42,2234	     1520,63	-35,8	     1556,46	-32,7
     42,2253	     1524,31	-35,1	     1559,15	-32,7
     42,2273	     1527,58	-34,3	     1560,65	-32,4
     42,2292	     1532,15	-35,0	     1562,24	-30,9
     42,2312	     1535,23	-34,0	     1562,24	-31,5
     42,2331	     1538,77	-33,7	     1563,61	-30,5
     42,2351	     1542,94	-33,5	     1564,97	-30,0
      42,237	     1545,28	-33,5	      1566,3	-29,3
      42,239	     1547,66	-31,8	     1569,04	-29,3
      42,241	     1550,18	-31,6	     1568,62	-28,5
     42,2429	     1551,25	-31,2	     1569,03	-27,9
     42,2449	     1553,31	-30,7	     1568,83	-28,1
     42,2468	     1554,81	-30,2	     1570,73	-27,5
     42,2488	     1556,19	-30,1	     1571,43	-26,9
     42,2507	     1558,09	-29,8	     1570,33	-27,1
     42,2527	     1561,79	-28,3	     1570,56	-27,1
     42,2546	      1563,9	-28,8	     1572,86	-26,4
     42,2566	     1564,08	-28,5	     1572,44	-26,0
     42,2586	     1567,42	-27,4	     1574,27	-26,7
     42,2605	      1568,1	-27,5	     1574,23	-25,9
     42,2625	     1569,62	-27,4	      1574,8	-25,2
     42,2644	     1570,82	-26,6	        1575	-24,7
     42,2664	     1573,24	-26,3	     1576,19	-24,7
     42,2683	     1574,17	-26,6	     1576,39	-24,3
     42,2703	      1573,8	-26,4	     1575,97	-23,3
     42,2722	     1573,41	-25,0	     1576,93	-23,7
     42,2742	     1574,65	-24,7	     1575,92	-22,2
     42,2761	      1574,8	-24,0	     1575,78	-21,7
     42,2781	     1575,23	-23,9	     1574,77	-22,2
     42,2801	     1577,32	-22,6	     1575,28	-21,8
      42,282	     1577,63	-23,1	     1575,08	-21,3
      42,284	     1576,38	-22,4	     1573,61	-20,6
     42,2859	     1575,13	-21,8	     1573,33	-21,0
     42,2879	     1575,73	-22,4	     1574,41	-20,2
     42,2898	     1576,09	-21,7	     1574,01	-20,0
     42,2918	     1576,46	-21,1	      1571,4	-20,4
     42,2937	     1576,63	-20,4	     1572,01	-20,0
     42,2957	     1576,49	-21,2	     1571,38	-19,2
     42,2977	     1576,61	-20,6	     1571,25	-19,0
     42,2996	     1576,82	-19,8	     1569,98	-19,3
     42,3016	      1578,1	-19,7	     1571,63	-18,9
     42,3035	     1577,85	-19,5	     1568,95	-18,2
     42,3055	     1575,65	-19,1	     1568,42	-18,3
     42,3074	     1574,87	-18,8	     1567,16	-16,3
     42,3094	     1575,26	-18,6	     1566,48	-16,6
     42,3113	     1574,64	-17,4	      1564,1	-16,5
     42,3133	     1573,13	-17,4	     1563,23	-16,8
     42,3153	     1573,44	-17,1	     1562,52	-15,4
     42,3172	      1571,1	-16,6	     1560,62	-15,3
     42,3192	     1569,89	-16,8	      1559,5	-16,0
     42,3211	     1570,76	-15,4	     1559,21	-15,0
     42,3231	     1569,34	-15,9	     1557,31	-14,8
      42,325	     1568,48	-15,7	     1557,02	-14,6
      42,327	      1567,4	-14,9	     1556,09	-15,2
     42,3289	     1566,07	-14,5	     1554,18	-14,6
     42,3309	     1565,63	-14,9	      1552,5	-14,1
     42,3328	     1564,76	-14,3	      1553,1	-14,4
     42,3348	     1563,68	-14,4	     1552,27	-13,5
     42,3368	     1563,15	-14,2	      1549,7	-13,3
     42,3387	     1562,23	-13,6	     1548,83	-12,9
     42,3407	     1561,74	-13,0	     1547,83	-13,3
     42,3426	     1560,56	-12,5	      1546,2	-11,2
     42,3446	     1558,19	-13,1	     1546,73	-11,3
     42,3465	     1557,44	-12,6	     1543,42	-11,5
     42,3485	     1556,02	-11,6	     1543,18	-11,7
     42,3504	     1554,79	-11,7	     1540,91	-10,1
     42,3524	     1552,34	-11,6	     1539,66	-10,2
     42,3544	     1550,27	-10,9	     1538,15	-10,7
     42,3563	     1549,23	-10,4	     1536,37	-9,4
     42,3583	        1548	-10,6	     1534,61	-9,7
     42,3602	     1546,22	-9,7	     1531,25	-9,7
     42,3622	     1544,93	-9,4	     1529,38	-9,6
     42,3641	        1543	-9,3	     1526,78	-8,5
     42,3661	     1540,72	-9,2	     1525,92	-7,7
      42,368	     1539,02	-8,1	     1524,36	-9,2
       42,37	     1538,46	-8,0	     1522,47	-8,6
     42,3719	     1536,51	-7,7	     1519,81	-7,9
     42,3739	     1534,52	-8,1	      1518,5	-7,5
     42,3759	     1533,76	-7,1	     1517,59	-8,5
     42,3778	     1531,27	-7,8	     1515,88	-7,5
     42,3798	     1528,23	-7,6	     1514,59	-7,6
     42,3817	     1525,51	-7,6	     1512,23	-7,4
     42,3837	     1525,22	-6,4	     1509,17	-7,1
     42,3856	     1522,89	-7,2	      1507,7	-6,7
     42,3876	     1521,38	-6,8	     1505,65	-6,4
     42,3895	     1519,57	-6,0	     1504,22	-6,5
     42,3915	     1518,11	-5,9	     1501,86	-5,9
     42,3935	     1516,04	-6,0	     1499,98	-5,3
     42,3954	     1513,32	-5,7	     1498,61	-5,3
     42,3974	     1511,77	-5,6	     1495,95	-5,6
     42,3993	     1509,84	-5,0	     1494,31	-5,3
     42,4013	      1505,9	-4,5	     1491,24	-3,8
     42,4032	     1504,42	-4,0	     1488,98	-4,2
     42,4052	     1501,26	-3,1	     1487,13	-3,9
     42,4071	     1499,86	-3,9	     1486,49	-3,5
     42,4091	     1498,35	-3,2	     1483,75	-2,9
      42,411	     1496,69	-2,8	     1481,45	-3,2
      42,413	     1493,44	-2,3	      1479,7	-2,8
      42,415	     1491,17	-2,1	        1478	-1,9
     42,4169	     1488,42	-2,1	     1475,33	-2,3
     42,4189	     1486,83	-1,4	     1473,46	-2,2
     42,4208	     1483,91	-1,5	     1471,43	-1,7
     42,4228	     1481,41	-2,0	     1469,01	-1,1
     42,4247	      1480,5	-1,5	     1467,29	-2,3
     42,4267	     1478,45	-0,2	     1464,72	-1,9
     42,4286	      1476,5	-0,3	      1462,7	-1,5
     42,4306	     1473,98	-1,4	     1460,16	-1,0
     42,4326	     1470,94	-0,9	     1456,92	-0,9
     42,4345	      1469,4	-0,3	     1454,33	-1,3
     42,4365	     1467,41	 0,2	     1452,48	-0,6
     42,4384	     1463,92	-0,6	     1449,53	-0,3
     42,4404	      1461,7	 0,4	     1447,88	-0,2
     42,4423	     1459,19	 0,2	        1446	-0,2
     42,4443	     1456,63	 0,2	     1444,92	 0,6
     42,4462	     1455,67	 0,1	     1441,65	 0,5
     42,4482	     1454,16	 1,2	     1439,36	 0,3
     42,4501	     1451,52	 1,7	     1437,15	 1,2
     42,4521	     1446,64	 0,6	     1434,88	 1,5
     42,4541	      1445,6	 1,3	     1431,14	 1,4
      42,456	     1443,31	 2,4	     1429,83	 1,4
      42,458	     1440,26	 2,0	     1427,94	 2,5
     42,4599	     1435,71	 2,0	     1425,58	 2,7
     42,4619	     1434,42	 2,0	     1421,19	 2,7
     42,4638	     1431,67	 3,1	     1420,61	 2,4
     42,4658	     1430,96	 2,9	     1417,32	 3,3
     42,4677	     1427,46	 3,7	     1415,87	 3,7
     42,4697	     1424,27	 3,4	     1412,49	 3,4
     42,4717	     1424,48	 3,5	     1411,75	 3,5
     42,4736	     1420,18	 3,7	     1408,71	 4,5
     42,4756	     1417,67	 3,9	      1406,2	 4,3
     42,4775	     1413,36	 4,8	     1404,34	 4,5
     42,4795	     1412,05	 4,8	     1400,27	 4,2
     42,4814	     1410,14	 4,8	     1398,59	 4,2
     42,4834	     1408,04	 4,5	     1395,64	 5,6
     42,4853	     1404,78	 5,6	     1393,32	 5,0
     42,4873	     1401,93	 6,4	     1389,46	 5,4
     42,4892	     1399,54	 5,6	     1387,37	 5,7
     42,4912	     1395,34	 5,7	     1384,39	 6,1
     42,4932	     1393,36	 6,9	      1382,1	 6,1
     42,4951	     1391,95	 7,0	     1379,65	 5,7
     42,4971	     1388,73	 6,4	     1378,36	 6,9
      42,499	      1386,4	 6,5	     1376,72	 6,7
      42,501	     1383,29	 7,5	     1373,74	 6,3
     42,5029	     1381,19	 7,5	     1371,28	 6,7
     42,5049	     1377,11	 7,3	     1368,53	 7,4
     42,5068	     1375,01	 7,4	      1364,4	 6,6
     42,5088	     1372,28	 7,9	      1361,7	 7,0
     42,5108	     1370,63	 8,7	     1358,69	 7,2
     42,5127	     1366,62	 7,6	     1357,58	 8,0
     42,5147	     1364,42	 8,1	     1355,58	 8,3
     42,5166	     1362,52	 8,5	     1352,96	 7,5
     42,5186	     1360,24	 7,8	     1350,02	 7,9
     42,5205	     1358,26	 8,5	     1347,66	 8,2
     42,5225	     1355,22	 8,8	     1343,59	 7,8
     42,5244	     1352,41	 9,3	     1340,52	 8,2
     42,5264	     1349,33	 9,8	     1338,79	 8,7
     42,5283	     1346,64	 8,8	      1336,1	 8,8
     42,5303	     1344,47	 9,1	        1334	 8,8
     42,5323	     1341,34	 9,7	     1332,75	 9,0
     42,5342	     1338,47	10,4	     1330,13	 9,4
     42,5362	     1335,66	 9,4	     1326,86	 9,8
     42,5381	     1333,62	 9,7	      1324,7	10,1
     42,5401	     1331,79	10,3	     1321,32	 9,3
      42,542	     1329,21	10,8	     1319,08	 9,5
      42,544	     1324,07	10,1	     1318,25	10,6
     42,5459	     1322,24	 9,9	      1315,9	10,9
     42,5479	     1318,34	10,8	      1311,1	10,0
     42,5499	     1315,71	11,4	     1307,78	 9,9
     42,5518	     1311,52	10,9	     1305,63	11,4
     42,5538	     1310,26	10,8	     1302,71	11,2
     42,5557	      1307,2	11,4	     1300,32	10,4
     42,5577	     1305,14	11,7	     1296,93	10,9
     42,5596	     1303,37	11,9	     1295,42	12,3
     42,5616	     1300,38	11,2	     1294,04	12,0
     42,5635	     1297,91	12,0	     1290,17	11,8
     42,5655	     1293,66	12,5	     1287,19	11,8
     42,5674	     1292,11	12,4	     1285,27	12,8
     42,5694	     1288,46	12,5	     1281,33	12,6
     42,5714	     1287,67	12,8	      1278,8	12,7
     42,5733	     1283,33	13,3	     1277,76	12,4
     42,5753	     1280,33	13,5	     1275,44	13,3
     42,5772	     1277,62	13,3	     1272,77	13,1
     42,5792	     1275,29	13,6	     1269,05	13,0
     42,5811	     1272,76	14,1	     1266,21	13,0
     42,5831	     1270,95	14,1	     1263,89	14,5
      42,585	     1266,09	14,3	     1260,96	14,1
      42,587	     1264,07	13,9	     1257,11	14,0
      42,589	     1261,13	14,9	     1256,26	13,9
     42,5909	     1259,36	14,8	     1254,19	14,5
     42,5929	     1256,45	14,8	     1251,27	14,9
     42,5948	     1254,53	14,9	     1246,63	14,7
     42,5968	     1251,02	15,9	     1244,71	14,4
     42,5987	     1248,46	15,4	     1240,57	16,3
     42,6007	     1243,56	15,3	     1239,28	15,8
     42,6026	     1241,93	15,4	     1237,41	15,4
     42,6046	     1238,69	16,1	     1233,57	15,1
     42,6065	     1236,28	16,2	     1232,46	15,1
     42,6085	     1232,35	16,2	     1230,28	16,2
     42,6105	     1230,36	16,1	     1225,79	16,0
     42,6124	     1228,38	16,2	     1223,45	16,3
     42,6144	     1225,23	16,8	     1220,17	16,8
     42,6163	     1224,33	16,6	     1218,73	16,4
     42,6183	     1221,44	16,5	     1215,36	16,9
     42,6202	     1217,73	16,2	     1212,65	16,8
     42,6222	     1215,32	17,6	     1209,97	17,0
     42,6241	     1213,18	17,4	     1209,14	17,0
     42,6261	     1208,39	17,2	     1207,82	17,9
     42,6281	     1206,19	17,0	     1204,53	17,5
       42,63	     1204,47	18,1	     1202,92	17,0
      42,632	     1201,77	18,2	     1199,15	17,5
     42,6339	     1197,22	17,6	     1195,18	18,4
     42,6359	     1195,22	18,2	     1193,83	17,9
     42,6378	      1191,8	18,7	     1189,48	17,8
     42,6398	     1189,58	18,7	     1186,31	17,5
     42,6417	     1186,33	18,4	     1183,27	19,1
     42,6437	     1184,98	17,9	     1181,79	18,6
     42,6456	     1182,83	19,1	     1178,43	18,7
     42,6476	     1182,21	19,5	     1176,12	18,2
     42,6496	     1179,75	19,5	     1173,85	18,3
     42,6515	      1176,6	18,8	     1171,72	19,7
     42,6535	     1173,55	19,1	     1168,77	19,2
     42,6554	     1169,84	19,8	     1167,37	18,9
     42,6574	     1166,96	19,8	      1164,6	18,7
     42,6593	     1163,76	19,5	     1162,45	20,2
     42,6613	     1160,37	19,4	     1160,75	19,5
     42,6632	     1157,82	20,6	     1157,65	19,4
     42,6652	     1156,71	20,2	     1154,09	20,3
     42,6672	     1152,84	19,8	     1152,12	20,5
     42,6691	     1151,23	19,9	     1149,48	20,4
     42,6711	      1148,3	21,1	     1146,24	20,3
      42,673	     1146,23	21,0	     1142,75	19,8
      42,675	     1142,72	20,3	     1140,84	21,1
     42,6769	     1141,21	20,6	     1137,29	20,7
     42,6789	     1138,91	21,5	     1133,98	20,7
     42,6808	     1135,77	21,4	     1131,94	21,0
     42,6828	     1131,85	21,4	     1130,49	21,2
     42,6847	      1130,5	21,2	     1127,74	21,1
     42,6867	     1127,86	21,4	     1125,39	21,4
     42,6887	     1124,84	22,0	     1121,49	21,5
     42,6906	     1122,44	22,3	     1118,49	21,3
     42,6926	     1118,06	22,0	     1115,87	21,3
     42,6945	      1116,8	22,5	     1114,99	22,4
     42,6965	     1114,05	22,1	     1112,59	22,3
     42,6984	     1112,36	22,6	     1110,27	21,5
     42,7004	     1110,22	22,8	     1108,29	22,2
     42,7023	     1106,59	23,5	     1106,34	22,7
     42,7043	     1104,63	22,7	      1104,3	23,0
     42,7063	     1102,81	23,4	     1100,29	22,6
     42,7082	      1100,9	23,8	     1098,24	22,4
     42,7102	     1096,35	23,7	     1096,06	22,7
     42,7121	     1093,39	23,3	     1092,92	23,7
     42,7141	      1091,7	24,1	      1090,3	23,8
      42,716	     1089,31	24,1	     1085,33	22,7
      42,718	     1087,58	24,9	     1082,91	23,5
     42,7199	     1085,19	24,7	      1082,5	23,8
     42,7219	     1081,06	23,9	     1080,58	24,6
     42,7239	     1078,89	24,2	     1078,67	23,6
     42,7258	     1075,55	25,6	     1076,68	24,3
     42,7278	      1073,7	25,2	     1073,56	24,5
     42,7297	      1071,5	24,6	     1071,33	24,9
     42,7317	     1069,32	24,9	     1068,45	24,6
     42,7336	     1067,93	25,4	      1065,6	25,0
     42,7356	     1065,72	25,8	     1061,32	24,8
     42,7375	     1061,53	25,5	     1059,07	25,1
     42,7395	      1059,9	24,9	     1055,78	25,6
     42,7414	     1056,49	26,2	     1053,08	25,7
     42,7434	     1054,28	26,2	     1051,94	25,1
     42,7454	     1051,96	26,2	     1050,82	25,4
     42,7473	      1048,5	25,6	     1048,82	26,3
     42,7493	      1045,4	26,0	     1046,12	25,9
     42,7512	     1043,78	25,7	     1042,32	25,8
     42,7532	     1041,63	27,0	     1041,25	25,7
     42,7551	     1039,99	26,4	     1039,52	25,5
     42,7571	     1035,84	26,0	        1037	25,8
      42,759	     1035,15	26,1	     1034,11	26,6
      42,761	     1032,73	26,9	     1030,49	26,0
      42,763	     1031,66	26,7	     1027,14	26,1
     42,7649	     1027,47	26,6	     1025,15	25,9
     42,7669	      1025,1	26,4	     1023,67	27,1
     42,7688	      1024,3	26,1	     1021,91	26,5
     42,7708	     1020,95	27,0	     1018,68	26,0
     42,7727	     1017,82	27,8	     1015,19	26,0
     42,7747	      1013,6	27,1	     1013,54	26,8
     42,7766	     1011,41	27,5	      1010,2	27,2
     42,7786	     1008,88	27,2	     1008,35	26,6
     42,7805	      1006,7	28,0	     1005,44	27,0
     42,7825	     1005,64	27,8	     1002,66	26,9
     42,7845	     1003,39	28,4	     1001,02	27,1
     42,7864	     999,906	27,7	     999,854	27,7
     42,7884	     998,347	27,8	      997,43	27,6
     42,7903	      996,58	28,5	     994,299	27,0
     42,7923	     993,722	29,5	     992,567	27,4
     42,7942	     990,342	28,5	     990,025	28,4
     42,7962	       988,2	28,6	      988,52	28,7
     42,7981	     986,768	29,2	     985,027	27,6
     42,8001	     984,631	29,1	     983,189	27,8
     42,8021	     981,901	29,7	     980,802	28,2
      42,804	     979,119	29,4	     977,446	29,2
      42,806	     976,349	29,2	     976,578	29,6
     42,8079	     974,328	28,9	     972,746	28,9
     42,8099	     971,368	29,9	     971,913	28,7
     42,8118	       970,8	29,7	      968,57	29,2
     42,8138	     968,977	29,4	     967,325	29,4
     42,8157	     966,405	28,9	     965,211	29,9
     42,8177	     962,142	30,2	     962,879	29,7
     42,8196	     960,206	29,7	     959,143	29,3
     42,8216	     957,233	30,3	      956,47	29,0
     42,8236	     955,518	29,8	     955,642	29,9
     42,8255	     952,102	29,5	     953,751	29,0
     42,8275	     951,176	29,3	     950,778	29,3
     42,8294	     950,575	30,6	     947,333	29,6
     42,8314	     948,692	30,2	     945,264	29,3
     42,8333	     945,821	29,9	     943,011	29,4
     42,8353	     943,514	30,4	     941,685	30,2
     42,8372	     940,695	30,3	     939,765	30,0
     42,8392	     938,084	31,2	     936,986	29,5
     42,8412	     936,109	30,6	     934,919	29,7
     42,8431	     934,414	30,9	     933,286	30,3
     42,8451	     931,111	30,7	     929,687	30,8
      42,847	     928,705	31,1	     927,191	30,5
      42,849	     926,942	31,3	     925,347	30,9
     42,8509	     925,314	32,1	     922,266	30,3
     42,8529	     922,128	31,8	     920,821	31,0
     42,8548	     920,271	31,7	      919,08	31,5
     42,8568	     917,788	32,1	     916,138	31,2
     42,8587	     915,742	32,1	     911,781	31,0
     42,8607	      913,28	32,3	     909,502	31,3
     42,8627	      911,32	32,3	     907,876	32,4
     42,8646	     908,562	32,3	     907,658	32,4
     42,8666	     907,831	32,6	     905,582	32,1
     42,8685	     904,991	31,5	     905,002	31,9
     42,8705	     903,184	32,4	     902,067	32,3
     42,8724	     900,509	32,2	      899,74	31,5
     42,8744	     899,398	31,8	     898,005	32,6
     42,8763	     896,571	32,2	     896,384	32,4
     42,8783	     895,255	32,4	     892,968	32,0
     42,8803	     891,683	32,5	     891,509	31,1
     42,8822	     890,361	32,0	     887,526	32,0
     42,8842	     888,234	33,2	     885,397	32,4
     42,8861	       885,8	32,2	     884,394	32,8
     42,8881	     884,437	33,3	     881,907	32,4
       42,89	     883,845	33,6	     880,361	31,7
      42,892	     881,171	34,0	     878,809	32,7
     42,8939	     879,232	33,7	     875,674	32,7
     42,8959	     875,976	33,9	     873,667	33,7
     42,8979	     873,709	33,8	      871,52	33,0
     42,8998	     870,378	33,8	     870,263	33,4
     42,9018	     869,599	34,3	      866,52	33,0
     42,9037	     866,867	34,3	     864,653	33,4
     42,9057	     864,106	33,5	     863,655	34,1
     42,9076	     863,573	33,3	     860,979	33,7
     42,9096	      863,48	34,2	     859,056	33,9
     42,9115	     861,532	34,1	     857,138	33,2
     42,9135	     858,065	33,8	     854,871	34,2
     42,9154	      856,51	33,6	     853,702	34,0
     42,9174	     853,944	33,8	     850,589	34,2
     42,9194	     851,894	33,8	     849,214	33,9
     42,9213	     849,643	34,8	     847,213	33,8
     42,9233	     848,773	35,0	     845,796	33,3
     42,9252	     845,212	34,4	     844,822	34,1
     42,9272	     842,485	34,5	     841,757	34,1
     42,9291	     840,716	34,9	     840,511	33,8
     42,9311	     838,759	35,4	     838,601	34,3
      42,933	     838,137	34,9	     836,019	34,7
      42,935	     836,542	35,8	      833,23	34,4
      42,937	     833,998	35,2	     831,791	35,0
     42,9389	     831,797	35,4	     830,046	35,5
     42,9409	     830,431	35,9	     828,717	35,4
     42,9428	     828,816	35,8	     826,167	35,1
     42,9448	     825,348	36,0	     825,369	34,6
     42,9467	     823,705	35,7	     823,134	35,7
     42,9487	     822,463	35,1	     820,154	35,4
     42,9506	     819,983	35,6	     817,243	35,5
     42,9526	     818,755	35,5	     815,775	35,2
     42,9545	     817,789	36,1	     814,466	35,3
     42,9565	     815,679	36,4	     812,272	35,2
     42,9585	     811,958	35,5	     811,643	35,4
     42,9604	     809,924	35,9	     807,984	35,6
     42,9624	     808,949	36,2	      806,46	35,0
     42,9643	     806,635	36,1	     803,606	35,4
     42,9663	     806,589	36,8	      802,93	35,7
     42,9682	     803,218	37,6	     802,455	35,7
     42,9702	     801,007	36,4	     799,431	36,5
     42,9721	     798,708	36,3	     796,203	36,1
     42,9741	     797,459	37,1	     793,874	36,6
     42,9761	     795,458	37,2	     792,113	36,5
      42,978	     793,198	37,3	     790,736	36,6
       42,98	     792,682	37,0	     788,937	37,1
     42,9819	     790,978	36,4	     787,924	37,0
     42,9839	      789,31	36,4	     786,427	36,7
     42,9858	     787,016	36,9	     784,908	36,6
     42,9878	     786,066	37,4	     782,486	36,0
     42,9897	     784,217	36,9	     780,365	36,5
     42,9917	       780,5	37,6	     778,345	36,3
     42,9936	     779,097	36,8	     777,523	37,3
     42,9956	     776,892	37,5	      775,46	37,3
     42,9976	     775,206	37,7	     774,247	36,5
     42,9995	     773,852	38,1	     772,126	36,9
     43,0015	      771,51	37,9	     770,234	37,2
     43,0034	       770,1	37,7	     769,158	37,9
     43,0054	     768,222	38,0	      766,58	37,6
     43,0073	     765,946	37,9	     764,647	38,1
     43,0093	     764,204	38,4	     761,536	37,5
     43,0112	     762,555	38,1	     760,579	37,9
     43,0132	      760,76	37,6	      759,57	38,3
     43,0152	     759,054	37,5	     758,711	37,9
     43,0171	     758,867	37,7	     757,214	38,1
     43,0191	     757,373	38,0	     755,779	37,9
      43,021	     756,005	38,5	     752,708	37,1
      43,023	     753,035	38,7	      750,45	37,2
     43,0249	      750,17	39,5	     747,406	37,7
     43,0269	     746,951	38,7	     746,051	38,3
     43,0288	     746,487	38,2	     743,931	38,8
     43,0308	     746,164	38,6	     742,427	38,4
     43,0327	     744,238	38,5	     741,396	38,8
     43,0347	     742,984	39,2	     739,366	38,1
     43,0367	     739,924	39,4	     739,422	38,9
     43,0386	     737,876	38,8	     738,189	39,5
     43,0406	     735,821	38,6	     737,669	39,2
     43,0425	     734,949	38,0	     734,725	38,9
     43,0445	      734,31	38,6	     733,686	38,3
     43,0464	     730,812	39,1	     732,501	38,5
     43,0484	     731,264	39,8	     730,446	38,3
     43,0503	     729,373	39,1	     729,198	39,1
     43,0523	     726,726	39,5	     726,925	39,1
     43,0543	     725,205	39,2	      724,78	38,7
     43,0562	     722,566	39,7	     722,557	39,0
     43,0582	     721,358	40,5	     720,933	38,6
     43,0601	     719,663	40,0	      719,31	39,4
     43,0621	      717,45	39,7	     717,957	40,0
      43,064	     716,888	39,2	     717,057	39,7
      43,066	     714,852	39,2	      715,35	39,7
     43,0679	     713,925	39,4	      714,96	39,3
     43,0699	     712,038	40,1	     711,895	39,2
     43,0718	     711,282	40,0	     709,919	39,1
     43,0738	     709,282	39,7	     708,974	39,7
     43,0758	       707,7	40,6	     707,533	39,4
     43,0777	     704,575	40,1	     705,821	39,5
     43,0797	     703,929	39,8	      704,22	39,8
     43,0816	     702,612	40,5	     702,615	39,5
     43,0836	     700,535	40,4	     701,054	40,0
     43,0855	     699,303	41,1	     700,049	40,4
     43,0875	     697,021	40,6	     698,746	40,7
     43,0894	     696,008	40,1	     697,114	40,6
     43,0914	     694,761	40,2	     695,377	40,4
     43,0934	     694,221	40,0	     693,221	40,3
     43,0953	     692,134	40,6	     691,484	40,2
     43,0973	     690,744	41,3	     688,435	39,6
     43,0992	     688,125	40,5	     688,203	40,1
     43,1012	     686,597	40,9	     686,797	40,5
     43,1031	     685,518	40,6	     685,411	40,4
     43,1051	     685,587	41,2	     684,599	41,4
      43,107	     683,085	41,9	     682,536	40,3
      43,109	     681,739	41,4	     681,158	40,9
     43,1109	     679,866	41,4	     678,323	41,3
     43,1129	     678,702	41,4	     677,964	41,3
     43,1149	     674,279	40,7	     678,114	41,7
     43,1168	     673,407	40,7	      676,96	41,2
     43,1188	     673,677	41,0	     674,865	40,9
     43,1207	     672,918	41,6	     672,992	40,3
     43,1227	     671,902	41,3	      670,96	40,3
     43,1246	     670,139	41,9	     668,761	41,0
     43,1266	      668,52	41,7	     668,718	41,0
     43,1285	     666,361	41,9	     666,617	41,7
     43,1305	     664,679	41,9	     664,114	41,3
     43,1325	     662,358	41,9	     663,244	41,8
     43,1344	     660,326	42,4	     661,223	41,6
     43,1364	     660,026	41,9	      660,25	41,4
     43,1383	     658,634	42,0	     660,387	42,2
     43,1403	     656,381	41,5	     660,499	41,7
     43,1422	     654,898	41,4	     657,787	41,9
     43,1442	     654,079	41,5	     655,843	41,5
     43,1461	     654,223	42,1	     653,849	40,9
     43,1481	     653,189	42,6	     651,574	41,3
       43,15	     651,216	42,6	     649,019	41,6
      43,152	     649,232	42,4	     648,385	42,3
      43,154	     648,455	42,0	     647,373	42,2
     43,1559	     646,416	42,1	     647,044	42,5
     43,1579	     645,372	41,7	      647,13	42,4
     43,1598	     644,142	42,6	     644,306	41,9
     43,1618	      642,76	42,2	     642,567	41,4
     43,1637	      641,12	42,5	     641,055	42,0
     43,1657	     639,897	42,8	     638,311	41,5
     43,1676	     639,906	42,2	     637,458	42,1
     43,1696	     638,522	42,3	     637,169	42,7
     43,1716	     637,885	42,7	     635,913	42,2
     43,1735	     635,429	42,9	     633,667	42,1
     43,1755	     634,583	43,6	     632,334	42,2
     43,1774	      631,88	43,0	     631,793	43,2
     43,1794	     629,562	42,7	     631,997	43,0
     43,1813	      628,65	42,7	     629,377	42,9
     43,1833	     627,195	42,5	     627,103	42,6
     43,1852	     626,806	42,7	     626,744	42,5
     43,1872	      626,78	43,2	     624,814	42,2
     43,1891	     625,382	43,4	     623,589	42,1
     43,1911	     624,313	43,7	     622,636	43,1
     43,1931	     621,676	43,3	      621,56	43,1
      43,195	     618,734	43,2	     620,291	43,7
      43,197	     617,641	42,9	       617,9	43,9
     43,1989	     616,662	43,4	     617,322	43,7
     43,2009	     616,989	42,9	      614,83	43,3
     43,2028	     616,064	43,4	     614,663	42,7
     43,2048	     616,019	43,5	     613,019	42,6
     43,2067	     613,042	43,1	     612,724	42,7
     43,2087	     611,082	43,7	     611,023	43,5
     43,2107	      608,67	43,4	     608,943	43,3
     43,2126	     606,995	43,4	     607,915	43,5
     43,2146	     607,465	44,7	     607,294	44,2
     43,2165	     606,202	43,8	     606,602	43,5
     43,2185	     605,268	44,3	      605,35	43,4
     43,2204	     603,208	43,9	     603,664	44,2
     43,2224	     601,754	43,0	     602,997	43,1
     43,2243	     602,305	43,7	     603,055	43,9
     43,2263	     600,667	43,5	     599,919	43,5
     43,2282	     599,275	44,1	     599,011	43,1
     43,2302	     597,722	45,0	     596,695	43,6
     43,2322	     595,162	44,8	     595,993	44,3
     43,2341	     595,083	44,7	     593,169	44,4
     43,2361	     593,364	44,4	     592,339	43,8
      43,238	     591,803	43,9	     591,362	44,8
       43,24	     591,572	43,5	     591,703	44,1
     43,2419	     589,992	44,2	     591,765	44,4
     43,2439	     589,662	44,5	     590,215	43,9
     43,2458	     588,866	44,6	      588,14	43,7
     43,2478	     587,509	45,1	     587,228	43,9
     43,2498	     585,654	45,4	      584,39	44,0
     43,2517	     584,061	44,6	     583,469	44,4
     43,2537	      582,27	44,3	     581,777	45,1
     43,2556	     581,307	44,3	     581,448	44,6
     43,2576	     580,906	44,4	     580,881	44,7
     43,2595	     580,909	44,7	     580,335	44,0
     43,2615	     579,771	44,6	     578,159	43,9
     43,2634	     578,446	44,9	     576,466	44,2
     43,2654	     576,316	45,5	     575,042	44,5
     43,2673	     574,732	44,7	     574,142	45,1
     43,2693	      572,62	45,0	     574,674	45,3
     43,2713	     571,294	45,5	     574,174	44,9
     43,2732	     571,238	44,5	     572,891	45,4
     43,2752	     570,131	45,3	     571,564	44,8
     43,2771	     570,519	44,9	     569,315	44,3
     43,2791	     568,618	44,7	     568,544	44,6
      43,281	     568,032	45,1	     566,719	44,5
      43,283	     566,687	45,1	      565,56	45,1
     43,2849	      565,55	45,2	     564,638	45,4
     43,2869	     563,886	45,5	     564,065	45,6
     43,2889	     560,527	45,4	     563,393	45,6
     43,2908	     561,227	46,2	     562,549	45,2
     43,2928	     560,413	45,5	     559,878	44,9
     43,2947	     557,685	45,4	     559,608	45,0
     43,2967	     557,748	45,1	     559,927	44,8
     43,2986	     556,972	44,8	     558,053	44,3
     43,3006	     557,143	45,5	     555,861	45,2
     43,3025	     555,311	45,7	     554,622	45,7
     43,3045	      553,96	45,8	      553,08	45,8
     43,3064	     552,321	46,2	     553,669	46,1
     43,3084	     550,501	46,0	     552,894	45,4
     43,3104	     549,985	45,9	     551,496	45,0
     43,3123	     549,874	45,2	     549,941	45,1
     43,3143	     547,885	45,0	     547,643	45,0
     43,3162	     549,357	45,3	     545,822	45,9
     43,3182	     547,205	45,7	     545,193	46,3
     43,3201	     546,473	46,6	      545,99	46,4
     43,3221	     544,256	46,4	     546,081	46,4
      43,324	     543,897	46,2	      544,46	46,0
      43,326	     541,039	46,7	     543,243	45,5
      43,328	     540,162	46,3	     541,494	45,2
     43,3299	     538,585	45,2	     539,927	45,0
     43,3319	     539,064	45,2	      538,96	46,0
     43,3338	     539,575	45,8	     537,993	46,0
     43,3358	     538,809	45,9	     535,807	46,1
     43,3377	     537,541	46,9	     536,825	46,5
     43,3397	     535,861	47,1	     534,856	46,1
     43,3416	     534,055	46,7	     534,219	45,8
     43,3436	     531,086	46,8	     532,995	45,7
     43,3456	     530,744	46,1	     532,208	45,4
     43,3475	     531,429	45,3	     531,926	45,8
     43,3495	     532,236	46,0	     529,837	45,7
     43,3514	     530,999	46,4	      528,04	46,5
     43,3534	     527,793	46,9	      526,62	47,6
     43,3553	     525,041	47,1	     524,439	46,5
     43,3573	     525,267	46,9	     525,609	46,5
     43,3592	     525,263	47,0	     525,449	46,0
     43,3612	     525,356	46,1	     524,693	45,8
     43,3631	     523,787	45,8	     523,118	46,2
     43,3651	     523,488	46,6	     521,097	46,0
     43,3671	     521,289	46,7	     520,132	46,6
      43,369	     519,527	46,8	     519,862	47,3
      43,371	     519,096	47,1	     519,702	47,6
     43,3729	     518,591	47,2	     519,154	47,1
     43,3749	     516,951	47,0	     517,121	46,6
     43,3768	     516,882	46,8	     515,415	46,3
     43,3788	     515,983	47,0	     514,516	47,0
     43,3807	     514,378	46,5	     513,035	46,6
     43,3827	     513,374	47,2	     513,521	47,2
     43,3847	     512,078	46,8	      514,47	46,9
     43,3866	     511,347	47,1	     512,979	46,5
     43,3886	     509,916	47,9	     511,251	47,2
     43,3905	     509,207	46,9	     508,985	46,5
     43,3925	     507,995	47,4	     508,355	46,6
     43,3944	     507,246	47,1	      507,99	47,3
     43,3964	     506,748	46,7	      506,31	47,3
     43,3983	     506,454	47,1	     506,034	46,7
     43,4003	     506,282	47,0	     504,795	47,1
     43,4022	      504,32	47,8	     503,828	47,4
     43,4042	     503,268	48,0	      501,71	46,4
     43,4062	     501,861	47,1	     502,713	47,0
     43,4081	      501,45	46,8	     501,441	47,2
     43,4101	     499,667	47,7	     501,077	47,9
      43,412	     499,353	48,0	     499,889	47,5
      43,414	     498,209	47,4	     498,555	48,0
     43,4159	     497,535	47,9	     495,802	47,2
     43,4179	     496,825	47,6	     496,443	47,2
     43,4198	     494,542	47,3	     496,164	46,6
     43,4218	     493,214	47,0	     495,263	46,8
     43,4238	     493,106	46,9	     492,617	47,0
     43,4257	       493,6	47,2	     492,182	47,8
     43,4277	      492,98	48,0	     492,459	48,0
     43,4296	     491,051	48,3	     491,703	48,0
     43,4316	     490,259	48,6	     491,627	47,6
     43,4335	     489,169	48,1	     491,019	47,4
     43,4355	     489,112	47,8	     489,859	47,0
     43,4374	     486,859	47,2	     487,906	47,4
     43,4394	     486,125	47,4	     484,761	47,2
     43,4413	     485,871	47,4	     485,459	48,1
     43,4433	     484,255	47,8	     485,695	48,1
     43,4453	     484,924	48,1	     484,298	47,4
     43,4472	     484,785	48,3	     482,562	47,9
     43,4492	     483,168	48,5	     481,182	47,8
     43,4511	     481,086	48,4	     481,676	48,0
     43,4531	     480,922	48,2	     481,848	48,5
      43,455	     479,727	47,7	     481,084	47,8
      43,457	     479,436	48,8	     478,758	48,2
     43,4589	     478,694	48,0	     476,493	47,9
     43,4609	     478,241	48,2	     476,457	47,1
     43,4629	     476,402	48,3	      476,64	47,8
     43,4648	     475,496	47,7	     476,043	47,9
     43,4668	       474,3	48,1	     476,792	48,3
     43,4687	     473,758	48,4	     475,319	48,2
     43,4707	     473,484	48,9	     471,428	48,8
     43,4726	     472,535	48,7	     471,956	48,8
     43,4746	     470,295	48,8	     471,077	48,4
     43,4765	     469,901	48,9	     470,105	47,7
     43,4785	     469,844	47,7	     470,901	48,7
     43,4804	     469,379	48,0	     468,623	48,0
     43,4824	     468,903	47,9	     468,138	48,3
     43,4844	     467,818	48,7	     466,204	48,9
     43,4863	     466,157	49,2	     466,483	47,7
     43,4883	     465,559	48,9	     465,211	48,2
     43,4902	     464,961	48,8	     462,978	48,4
     43,4922	     465,057	48,6	     462,628	48,6
     43,4941	     462,958	48,6	     462,247	48,9
     43,4961	     462,771	49,1	     461,321	48,9
      43,498	     462,562	48,6	     460,747	48,8
        43,5	     461,563	49,0	     462,146	48,7

