X-Data [Hz]	Piezo (M - Filtered) [mV]	Phase [Deg]	Piezo (M - Filtered) [mV]	Phase [Deg]	
	002: [07-09-24 17:43]		003: [07-09-24 17:46]	
        41,5	     733,554	-73,5	     756,068	-75,7
      41,502	      749,59	-74,8	     746,537	-76,2
     41,5039	     753,704	-75,8	     753,345	-78,6
     41,5059	     748,955	-75,1	     760,323	-74,9
     41,5078	     748,965	-75,2	     765,297	-76,9
     41,5098	     750,651	-71,6	     755,094	-74,5
     41,5117	     768,752	-77,0	     757,884	-76,8
     41,5137	      763,23	-77,2	     755,141	-73,3
     41,5156	     760,861	-75,0	      760,06	-75,6
     41,5176	     754,362	-75,2	     769,875	-72,7
     41,5196	      768,65	-75,1	     767,584	-70,5
     41,5215	     767,677	-77,2	     761,307	-74,3
     41,5235	     761,661	-73,9	       762,2	-74,5
     41,5254	     774,951	-75,7	     763,742	-75,1
     41,5274	     771,973	-73,5	     776,928	-77,9
     41,5293	     767,229	-74,3	     776,488	-74,1
     41,5313	     772,668	-75,3	     767,429	-75,9
     41,5332	     778,178	-72,6	     770,209	-74,0
     41,5352	       772,8	-77,2	      777,23	-76,8
     41,5371	     772,785	-73,4	     779,526	-76,2
     41,5391	     780,747	-71,0	     767,336	-74,2
     41,5411	     776,714	-75,8	     770,962	-77,2
      41,543	     770,309	-73,1	     783,961	-73,7
      41,545	     773,075	-76,5	      783,61	-74,4
     41,5469	     778,833	-75,9	     778,602	-75,2
     41,5489	     786,757	-73,8	     778,142	-73,5
     41,5508	     777,824	-73,5	     779,172	-76,4
     41,5528	     781,164	-72,8	     776,869	-73,7
     41,5547	     786,396	-75,4	     785,582	-71,8
     41,5567	     788,816	-73,9	     796,609	-73,8
     41,5587	     783,117	-75,2	     781,344	-71,2
     41,5606	     795,672	-71,8	     790,833	-76,7
     41,5626	     789,374	-71,3	     786,737	-73,7
     41,5645	     800,264	-76,4	     792,417	-74,5
     41,5665	     793,282	-74,0	     793,911	-75,4
     41,5684	     792,835	-77,0	     799,208	-73,0
     41,5704	     794,808	-75,4	     802,028	-78,0
     41,5723	     797,628	-73,4	     793,574	-71,9
     41,5743	     809,202	-74,6	      796,63	-75,5
     41,5762	     793,232	-72,8	     798,217	-73,8
     41,5782	     800,496	-75,3	     800,088	-72,7
     41,5802	     808,527	-71,7	     802,979	-73,8
     41,5821	       811,3	-72,2	     812,445	-73,6
     41,5841	     810,121	-74,2	     814,256	-76,8
      41,586	     795,555	-72,8	      806,98	-74,9
      41,588	     801,522	-76,9	     795,573	-73,2
     41,5899	     810,639	-73,9	     803,714	-75,5
     41,5919	     822,335	-74,3	     817,199	-73,6
     41,5938	     822,514	-75,3	     812,505	-74,8
     41,5958	      818,28	-71,4	     820,889	-73,3
     41,5978	     810,585	-75,5	     810,761	-72,3
     41,5997	     809,755	-72,6	     807,392	-73,3
     41,6017	     821,027	-72,8	     807,597	-72,2
     41,6036	     816,517	-74,0	     825,327	-75,8
     41,6056	     824,775	-70,9	     831,867	-76,5
     41,6075	     823,902	-73,5	     824,805	-75,0
     41,6095	     804,996	-73,1	     822,641	-76,2
     41,6114	     817,835	-70,8	     821,138	-70,6
     41,6134	     831,895	-75,5	     822,655	-74,4
     41,6153	      841,96	-75,0	     834,687	-73,2
     41,6173	     834,571	-74,4	     838,979	-72,4
     41,6193	     830,754	-72,0	     823,638	-73,8
     41,6212	     832,344	-70,4	     824,343	-72,7
     41,6232	     824,119	-75,5	     835,768	-74,5
     41,6251	     821,136	-72,8	     839,533	-74,3
     41,6271	     839,878	-74,9	     836,065	-73,1
      41,629	     843,788	-76,3	     838,132	-75,8
      41,631	     840,908	-72,0	     829,782	-75,1
     41,6329	      843,07	-73,7	     834,275	-74,2
     41,6349	      847,24	-71,6	     838,561	-76,9
     41,6369	     849,898	-75,6	     832,582	-71,1
     41,6388	     848,955	-73,5	     842,157	-70,6
     41,6408	     846,726	-71,1	     846,926	-71,2
     41,6427	     848,737	-72,3	     841,969	-70,8
     41,6447	     850,967	-70,4	      854,67	-75,8
     41,6466	     853,653	-76,1	     854,596	-73,3
     41,6486	     849,596	-74,3	     850,482	-74,3
     41,6505	     846,261	-73,7	     857,167	-70,8
     41,6525	     850,984	-75,3	     856,325	-70,8
     41,6544	     857,342	-72,9	     858,692	-74,8
     41,6564	     861,705	-73,2	      859,97	-71,6
     41,6584	     860,594	-73,3	     855,347	-72,2
     41,6603	     863,746	-73,2	     844,754	-71,7
     41,6623	     862,122	-73,8	     845,976	-71,6
     41,6642	     854,052	-72,5	     865,706	-75,7
     41,6662	     868,651	-71,2	      875,21	-72,8
     41,6681	     864,628	-72,2	     862,641	-72,1
     41,6701	     871,612	-71,9	     859,291	-75,6
      41,672	      871,15	-75,2	     858,446	-71,4
      41,674	     874,794	-74,2	     866,172	-73,8
      41,676	     871,567	-73,5	     879,119	-70,4
     41,6779	     877,257	-75,9	     873,161	-70,5
     41,6799	     870,856	-68,0	     883,013	-74,7
     41,6818	     879,653	-71,6	     884,176	-72,1
     41,6838	     875,134	-73,2	     883,292	-73,4
     41,6857	     872,952	-71,7	     885,559	-73,0
     41,6877	     879,014	-74,2	     878,077	-70,3
     41,6896	     879,405	-73,1	     875,887	-73,3
     41,6916	     891,877	-74,2	     877,473	-70,3
     41,6936	     885,482	-71,8	     877,686	-71,4
     41,6955	     888,371	-69,1	     889,537	-74,2
     41,6975	     885,543	-71,1	     899,925	-72,0
     41,6994	     896,649	-72,8	     891,382	-72,5
     41,7014	     894,929	-71,3	     889,892	-71,4
     41,7033	     902,971	-74,1	     892,318	-70,9
     41,7053	     900,782	-72,3	     904,753	-74,2
     41,7072	     895,572	-71,7	     896,882	-70,6
     41,7092	     898,611	-71,9	     888,365	-72,7
     41,7111	     893,017	-70,0	      899,38	-73,5
     41,7131	      897,44	-72,8	     897,721	-68,8
     41,7151	     897,434	-71,1	     890,363	-71,8
      41,717	     901,855	-70,5	     900,814	-70,9
      41,719	     906,491	-72,0	     908,631	-69,9
     41,7209	     911,378	-71,0	     907,879	-74,9
     41,7229	     915,898	-72,9	     917,763	-71,1
     41,7248	     915,052	-72,6	     920,166	-73,5
     41,7268	     915,537	-73,4	     916,914	-72,5
     41,7287	     912,294	-74,4	      913,58	-70,0
     41,7307	     925,124	-67,8	     909,704	-70,7
     41,7327	      926,69	-69,0	     919,134	-70,6
     41,7346	     919,789	-72,0	     917,741	-72,6
     41,7366	     917,102	-69,5	     919,604	-72,9
     41,7385	     918,096	-73,4	     923,819	-70,8
     41,7405	     916,102	-72,0	     934,559	-70,2
     41,7424	     930,319	-70,0	     926,917	-69,6
     41,7444	     934,316	-72,5	      928,48	-70,5
     41,7463	     922,133	-69,4	     937,872	-73,2
     41,7483	     927,108	-68,3	     932,624	-72,4
     41,7502	     934,536	-71,9	     939,164	-73,2
     41,7522	     936,971	-70,7	     941,966	-75,2
     41,7542	     949,326	-74,5	     945,437	-72,0
     41,7561	     945,952	-72,9	     931,047	-70,8
     41,7581	     938,819	-70,7	     937,749	-72,4
       41,76	     935,466	-71,0	      944,86	-69,8
      41,762	     937,667	-71,2	     940,067	-69,5
     41,7639	     933,508	-68,4	     941,484	-71,2
     41,7659	     948,616	-72,3	     951,113	-69,4
     41,7678	     960,131	-69,9	     952,276	-71,9
     41,7698	     952,255	-70,7	     953,132	-69,5
     41,7718	     955,263	-71,3	     955,747	-70,3
     41,7737	     954,614	-71,1	      958,31	-71,9
     41,7757	     959,416	-70,9	     959,686	-71,1
     41,7776	      958,42	-71,2	     960,184	-72,9
     41,7796	     955,843	-69,6	     959,065	-68,9
     41,7815	     954,036	-70,9	     961,317	-69,5
     41,7835	     966,657	-70,0	     964,331	-71,0
     41,7854	     972,629	-70,6	     969,604	-70,4
     41,7874	     970,801	-71,3	     971,574	-68,7
     41,7893	     968,652	-69,0	     969,639	-71,5
     41,7913	         977	-70,6	     965,472	-69,9
     41,7933	     969,898	-72,9	     974,064	-71,0
     41,7952	     973,737	-70,1	     979,487	-71,3
     41,7972	     979,087	-71,8	     968,911	-69,3
     41,7991	     973,937	-69,5	     978,047	-68,4
     41,8011	     979,522	-68,8	     979,627	-70,1
      41,803	     978,851	-69,8	     981,649	-65,8
      41,805	     991,705	-69,2	      990,49	-71,7
     41,8069	     986,139	-69,1	     989,616	-72,6
     41,8089	     984,844	-72,4	     1001,85	-69,4
     41,8109	     983,813	-70,0	     996,556	-71,2
     41,8128	     986,322	-69,0	     988,843	-68,4
     41,8148	     991,554	-69,7	     990,834	-68,2
     41,8167	     1000,03	-68,2	      1003,2	-70,3
     41,8187	     1011,79	-70,3	     1001,94	-67,7
     41,8206	      998,97	-70,6	     1005,46	-71,7
     41,8226	     1000,16	-67,8	      1003,4	-70,9
     41,8245	     1000,57	-70,9	     998,426	-69,2
     41,8265	     1002,88	-67,5	     1003,53	-71,2
     41,8284	     1006,56	-69,5	     1004,94	-70,2
     41,8304	     1011,95	-69,3	     1006,86	-65,6
     41,8324	     1016,47	-67,5	     1021,71	-70,5
     41,8343	     1021,24	-66,3	     1023,31	-69,5
     41,8363	      1017,8	-69,2	     1017,13	-69,5
     41,8382	     1002,09	-67,4	     1024,66	-72,4
     41,8402	      1008,4	-71,3	     1014,75	-68,1
     41,8421	     1019,29	-70,2	     1017,94	-70,0
     41,8441	     1029,26	-68,6	     1031,97	-68,9
      41,846	     1028,15	-71,4	     1036,55	-67,5
      41,848	     1018,14	-67,1	     1039,55	-70,2
       41,85	     1029,34	-66,3	        1037	-69,7
     41,8519	     1038,85	-69,4	     1035,24	-67,6
     41,8539	      1035,1	-68,2	     1038,92	-70,4
     41,8558	     1049,68	-70,1	     1044,47	-71,6
     41,8578	     1039,24	-71,1	     1035,94	-68,1
     41,8597	     1041,03	-69,1	     1035,13	-68,8
     41,8617	     1054,65	-69,4	     1051,48	-68,8
     41,8636	     1051,92	-66,9	     1054,66	-65,9
     41,8656	     1047,33	-66,7	     1062,36	-69,3
     41,8675	     1053,01	-69,5	     1051,66	-68,8
     41,8695	        1052	-70,1	     1051,48	-68,2
     41,8715	     1049,27	-68,2	     1056,72	-70,2
     41,8734	     1053,03	-69,2	     1054,37	-66,1
     41,8754	     1059,38	-66,9	     1055,52	-68,0
     41,8773	     1067,12	-67,4	     1064,23	-69,3
     41,8793	        1075	-69,5	     1072,73	-66,7
     41,8812	     1072,87	-66,8	     1073,38	-68,5
     41,8832	     1071,07	-65,4	      1077,3	-68,9
     41,8851	     1066,81	-69,0	     1076,88	-67,1
     41,8871	     1068,98	-67,8	      1079,6	-69,5
     41,8891	     1082,01	-68,0	     1082,78	-67,9
      41,891	     1074,11	-70,4	     1082,45	-67,5
      41,893	      1078,8	-67,1	     1080,17	-69,6
     41,8949	     1083,56	-67,4	     1075,22	-69,5
     41,8969	     1084,84	-67,2	     1088,03	-66,6
     41,8988	     1089,52	-67,7	     1098,24	-67,5
     41,9008	      1088,1	-69,7	      1103,6	-67,5
     41,9027	     1085,03	-69,5	     1096,41	-65,4
     41,9047	     1086,22	-66,2	     1091,04	-67,1
     41,9066	     1092,93	-66,9	     1099,42	-68,4
     41,9086	     1098,73	-65,7	     1091,13	-64,3
     41,9106	     1100,34	-66,2	     1096,22	-70,2
     41,9125	     1105,79	-69,2	     1111,17	-68,2
     41,9145	     1110,83	-69,5	     1111,13	-64,8
     41,9164	     1103,62	-65,5	     1111,02	-67,8
     41,9184	     1107,82	-65,9	     1118,03	-66,0
     41,9203	     1109,32	-64,1	     1118,53	-66,5
     41,9223	     1113,44	-63,9	     1124,03	-68,2
     41,9242	     1125,69	-70,2	     1127,07	-67,9
     41,9262	     1115,38	-69,2	     1122,48	-66,6
     41,9282	     1115,31	-67,2	     1120,95	-69,5
     41,9301	     1132,26	-67,6	     1131,53	-69,7
     41,9321	     1124,88	-61,8	     1129,16	-64,5
      41,934	     1122,11	-65,1	     1123,76	-66,7
      41,936	     1132,71	-66,2	     1130,13	-64,6
     41,9379	     1130,42	-63,6	     1138,11	-65,6
     41,9399	     1136,26	-68,0	     1150,61	-68,0
     41,9418	     1136,62	-67,3	     1154,01	-68,0
     41,9438	     1141,56	-66,0	     1148,52	-67,4
     41,9457	     1148,77	-68,0	     1157,18	-68,4
     41,9477	     1157,44	-66,3	     1157,91	-65,9
     41,9497	     1148,84	-64,1	     1165,38	-63,7
     41,9516	     1157,21	-64,1	     1163,56	-67,4
     41,9536	     1154,09	-65,2	     1155,67	-64,5
     41,9555	     1154,43	-65,1	     1156,75	-66,9
     41,9575	     1154,92	-67,2	     1163,46	-68,9
     41,9594	      1154,8	-67,0	     1175,21	-66,0
     41,9614	     1156,61	-64,2	     1175,19	-65,1
     41,9633	     1171,81	-66,1	     1186,33	-67,0
     41,9653	     1170,64	-66,6	     1188,37	-65,4
     41,9673	     1175,12	-63,6	     1180,55	-65,3
     41,9692	     1173,57	-66,2	     1177,13	-67,2
     41,9712	     1184,41	-65,3	     1166,14	-62,4
     41,9731	     1188,75	-63,9	     1172,18	-65,2
     41,9751	     1190,61	-65,1	     1190,15	-66,4
      41,977	     1190,49	-65,9	     1206,69	-63,7
      41,979	     1191,11	-64,5	     1207,37	-63,0
     41,9809	     1192,76	-68,3	     1209,94	-67,3
     41,9829	     1191,92	-67,1	     1211,81	-67,5
     41,9848	     1198,36	-63,0	     1206,61	-64,5
     41,9868	     1205,17	-65,2	     1214,87	-65,4
     41,9888	     1214,07	-61,5	     1215,22	-63,2
     41,9907	     1219,18	-61,3	     1214,44	-62,3
     41,9927	     1214,57	-63,5	      1222,9	-65,9
     41,9946	     1206,59	-64,3	     1221,17	-65,0
     41,9966	        1197	-62,9	     1226,34	-63,9
     41,9985	     1213,11	-65,3	     1226,97	-65,1
     42,0005	      1217,1	-66,7	     1231,22	-62,9
     42,0024	     1219,79	-61,7	     1236,81	-64,9
     42,0044	     1228,16	-64,1	     1238,82	-64,9
     42,0064	     1230,13	-63,3	     1236,87	-64,0
     42,0083	        1236	-61,3	     1238,64	-63,9
     42,0103	     1239,83	-65,8	      1236,3	-64,3
     42,0122	     1236,02	-65,6	     1236,31	-65,7
     42,0142	     1235,61	-63,6	     1239,27	-63,1
     42,0161	     1242,71	-64,2	     1245,17	-63,2
     42,0181	     1241,88	-63,2	     1256,07	-62,0
       42,02	      1235,3	-62,7	     1256,29	-61,6
      42,022	     1243,39	-64,5	     1267,89	-65,7
     42,0239	     1250,33	-65,5	     1281,66	-66,4
     42,0259	     1257,32	-60,7	     1270,74	-62,4
     42,0279	     1266,82	-60,7	     1271,21	-61,9
     42,0298	     1270,26	-62,3	      1268,1	-62,2
     42,0318	     1263,62	-61,1	     1273,79	-61,7
     42,0337	     1280,01	-63,7	     1281,63	-64,1
     42,0357	     1285,65	-64,6	      1282,6	-65,1
     42,0376	     1287,44	-63,9	     1296,39	-62,1
     42,0396	     1289,74	-63,1	     1299,96	-63,5
     42,0415	      1283,7	-66,2	     1302,38	-63,8
     42,0435	     1281,28	-60,9	     1297,46	-62,3
     42,0455	     1287,73	-61,9	     1300,97	-63,1
     42,0474	        1303	-61,3	     1300,09	-64,9
     42,0494	     1303,24	-61,4	     1292,33	-58,8
     42,0513	     1304,35	-62,8	     1305,88	-62,2
     42,0533	     1306,82	-63,3	      1315,2	-63,6
     42,0552	     1307,34	-60,2	     1327,65	-59,1
     42,0572	     1306,27	-61,1	     1329,43	-59,8
     42,0591	     1315,24	-64,1	     1331,54	-64,1
     42,0611	     1314,14	-62,3	     1329,77	-62,2
      42,063	     1316,26	-62,6	     1332,27	-60,4
      42,065	     1317,68	-63,2	     1328,97	-61,8
      42,067	     1332,74	-58,9	     1335,51	-63,1
     42,0689	     1325,76	-60,7	     1347,66	-61,6
     42,0709	     1327,49	-61,8	     1339,67	-63,1
     42,0728	     1331,85	-61,5	     1343,24	-60,0
     42,0748	     1334,78	-63,0	     1359,02	-59,4
     42,0767	     1341,26	-62,9	     1357,22	-61,2
     42,0787	     1339,19	-61,9	     1359,71	-62,3
     42,0806	     1347,22	-60,3	     1360,41	-59,5
     42,0826	     1350,02	-61,2	     1359,81	-61,9
     42,0846	     1356,03	-60,9	     1361,66	-62,3
     42,0865	     1364,21	-59,2	     1368,55	-58,7
     42,0885	     1381,71	-60,3	     1368,92	-59,2
     42,0904	     1376,15	-61,2	     1371,92	-62,8
     42,0924	     1367,43	-57,9	     1377,27	-63,1
     42,0943	     1375,71	-59,0	     1380,56	-61,4
     42,0963	     1376,92	-59,9	     1397,52	-61,0
     42,0982	     1374,98	-57,5	     1401,74	-59,4
     42,1002	     1374,48	-57,5	     1410,34	-58,9
     42,1021	     1377,54	-61,4	        1401	-59,3
     42,1041	     1377,01	-60,7	     1405,83	-60,6
     42,1061	     1390,85	-60,7	     1405,73	-58,5
      42,108	     1399,83	-62,8	     1408,94	-58,5
       42,11	     1410,17	-59,0	     1416,87	-61,3
     42,1119	     1411,56	-58,5	        1422	-57,9
     42,1139	     1415,72	-60,3	     1429,11	-58,7
     42,1158	     1413,05	-61,0	     1435,56	-58,6
     42,1178	     1413,81	-56,7	     1438,19	-60,3
     42,1197	     1417,36	-60,0	     1430,15	-57,7
     42,1217	     1418,92	-58,1	     1435,53	-60,8
     42,1237	     1423,74	-58,1	     1444,31	-57,7
     42,1256	     1436,74	-61,7	     1440,91	-58,7
     42,1276	     1439,51	-60,8	     1441,87	-59,6
     42,1295	     1441,35	-59,3	      1446,3	-59,8
     42,1315	     1444,57	-59,8	     1453,76	-56,7
     42,1334	     1449,06	-59,9	     1456,28	-57,8
     42,1354	     1444,44	-57,5	     1474,45	-58,0
     42,1373	     1458,54	-57,5	     1482,53	-56,8
     42,1393	     1466,11	-59,3	     1479,16	-55,4
     42,1413	     1462,84	-57,9	     1483,35	-60,2
     42,1432	     1469,87	-55,3	     1489,25	-58,9
     42,1452	     1476,78	-58,2	     1496,38	-57,4
     42,1471	     1477,85	-56,5	     1496,94	-58,4
     42,1491	     1474,71	-56,9	     1492,98	-57,8
      42,151	      1489,9	-60,5	     1501,62	-56,4
      42,153	     1494,41	-60,4	     1511,77	-57,4
     42,1549	     1497,98	-56,6	     1519,58	-58,2
     42,1569	     1500,33	-57,8	      1517,8	-56,9
     42,1588	     1501,99	-56,3	     1503,27	-56,5
     42,1608	     1501,41	-56,8	     1513,72	-56,7
     42,1628	     1508,33	-55,7	     1530,27	-54,2
     42,1647	     1512,63	-57,9	     1535,19	-54,0
     42,1667	     1518,21	-56,8	     1543,65	-57,3
     42,1686	     1523,72	-53,1	      1551,6	-57,6
     42,1706	     1529,73	-54,7	     1549,78	-56,2
     42,1725	     1521,38	-57,4	     1556,95	-56,7
     42,1745	     1526,88	-56,2	     1566,55	-57,0
     42,1764	     1538,26	-55,4	     1561,73	-55,6
     42,1784	     1547,75	-56,2	     1557,14	-58,1
     42,1804	      1544,7	-56,5	     1569,69	-58,8
     42,1823	     1553,73	-55,6	     1577,68	-53,8
     42,1843	     1561,85	-56,5	      1575,4	-54,7
     42,1862	     1573,24	-57,2	     1585,15	-56,1
     42,1882	     1584,82	-56,0	     1592,42	-55,6
     42,1901	     1590,14	-56,8	     1595,04	-55,1
     42,1921	     1590,46	-54,1	     1588,76	-54,3
      42,194	     1586,56	-53,6	     1590,51	-54,9
      42,196	     1580,87	-54,8	      1606,3	-53,4
     42,1979	     1586,71	-55,6	     1606,02	-53,5
     42,1999	      1591,2	-55,3	      1622,8	-56,7
     42,2019	     1592,11	-52,2	     1622,73	-54,3
     42,2038	     1605,74	-53,9	     1623,02	-54,6
     42,2058	     1606,22	-55,4	     1634,15	-54,7
     42,2077	     1620,16	-54,7	     1639,41	-56,3
     42,2097	     1619,86	-55,3	     1640,31	-54,8
     42,2116	     1630,06	-55,4	      1648,7	-54,1
     42,2136	     1625,56	-54,4	     1661,63	-55,6
     42,2155	     1632,44	-55,8	     1656,73	-51,5
     42,2175	     1641,53	-55,3	     1652,94	-53,3
     42,2195	        1646	-50,6	     1662,29	-55,9
     42,2214	     1658,95	-52,3	     1674,03	-53,7
     42,2234	     1651,69	-55,1	     1680,58	-50,5
     42,2253	     1652,55	-56,2	     1673,97	-52,1
     42,2273	     1656,63	-51,3	     1678,05	-53,3
     42,2292	     1659,83	-52,2	     1688,35	-51,4
     42,2312	     1668,62	-53,5	     1688,34	-51,2
     42,2331	     1668,46	-50,7	     1694,39	-53,9
     42,2351	     1677,46	-53,5	     1701,53	-54,3
      42,237	     1684,42	-53,7	     1717,09	-50,7
      42,239	     1690,47	-53,8	     1718,83	-50,2
      42,241	     1696,32	-50,4	     1725,52	-55,2
     42,2429	     1709,23	-51,4	     1732,64	-53,7
     42,2449	     1711,88	-52,9	     1735,59	-51,4
     42,2468	     1721,44	-50,7	     1738,89	-53,6
     42,2488	     1727,93	-52,7	     1739,18	-52,2
     42,2507	     1728,44	-52,9	      1736,4	-50,3
     42,2527	     1727,03	-51,3	     1737,52	-50,9
     42,2546	     1731,35	-49,2	     1746,52	-54,3
     42,2566	     1731,31	-52,7	     1754,88	-47,7
     42,2586	     1734,34	-52,5	     1760,53	-49,5
     42,2605	     1737,81	-48,8	     1776,54	-50,4
     42,2625	     1745,82	-48,4	     1781,35	-51,9
     42,2644	     1758,88	-52,1	     1792,93	-47,9
     42,2664	     1760,77	-49,4	      1788,9	-48,3
     42,2683	     1772,61	-49,3	     1806,98	-52,2
     42,2703	     1769,43	-52,2	     1809,12	-49,2
     42,2722	     1775,26	-49,9	     1810,01	-49,6
     42,2742	     1772,77	-48,2	      1812,3	-50,1
     42,2761	     1777,82	-44,1	     1822,26	-49,3
     42,2781	     1796,24	-51,2	     1830,23	-46,9
     42,2801	     1791,16	-50,1	     1835,17	-50,7
      42,282	     1804,94	-48,5	     1836,58	-50,8
      42,284	     1808,72	-49,8	     1840,94	-48,0
     42,2859	     1821,55	-50,3	     1846,58	-48,1
     42,2879	     1829,93	-47,3	     1851,26	-49,3
     42,2898	      1845,2	-47,9	     1858,09	-50,5
     42,2918	     1844,56	-49,8	      1868,5	-48,7
     42,2937	     1830,33	-46,7	     1873,43	-47,3
     42,2957	     1833,35	-46,4	     1881,32	-49,1
     42,2977	     1843,56	-47,7	     1886,97	-44,7
     42,2996	     1853,74	-48,4	     1877,17	-44,8
     42,3016	     1857,97	-47,2	     1875,77	-47,7
     42,3035	     1867,79	-44,7	     1881,84	-47,9
     42,3055	      1872,8	-46,0	     1892,47	-45,5
     42,3074	     1881,56	-44,5	     1906,62	-44,5
     42,3094	     1885,56	-45,6	      1929,3	-48,2
     42,3113	     1891,42	-46,5	     1932,16	-46,0
     42,3133	     1895,22	-47,0	      1934,4	-45,2
     42,3153	     1892,87	-46,1	     1934,04	-44,9
     42,3172	     1892,46	-44,2	     1940,98	-48,6
     42,3192	      1907,4	-47,9	     1950,24	-45,1
     42,3211	     1901,53	-48,5	     1959,71	-44,4
     42,3231	     1912,86	-43,5	     1964,83	-46,7
      42,325	     1918,32	-43,9	      1978,4	-44,6
      42,327	     1927,61	-48,3	     1979,74	-44,9
     42,3289	     1928,97	-46,2	     1967,97	-46,0
     42,3309	     1942,62	-43,2	      1986,5	-46,8
     42,3328	     1950,44	-43,6	     2000,61	-45,5
     42,3348	     1952,76	-45,9	     2011,16	-42,4
     42,3368	     1948,58	-46,0	     2002,24	-45,6
     42,3387	     1959,47	-42,5	     2019,48	-44,2
     42,3407	      1973,3	-43,2	     2018,14	-43,1
     42,3426	     1973,24	-44,2	     2020,07	-43,3
     42,3446	     1981,95	-38,6	     2032,99	-43,2
     42,3465	     1993,61	-41,8	      2032,8	-43,8
     42,3485	     1997,02	-42,7	      2047,7	-42,9
     42,3504	     2005,05	-43,6	     2059,24	-41,3
     42,3524	     2017,31	-39,4	     2057,47	-42,0
     42,3544	      2029,5	-40,4	     2075,25	-42,2
     42,3563	     2033,34	-43,2	     2083,29	-40,1
     42,3583	     2027,05	-41,9	     2081,99	-42,9
     42,3602	     2031,59	-39,0	     2079,15	-42,4
     42,3622	     2043,24	-42,4	     2085,99	-41,7
     42,3641	     2046,89	-41,8	     2091,49	-39,0
     42,3661	     2051,68	-39,0	     2090,96	-41,2
      42,368	     2055,61	-39,0	     2111,49	-41,6
       42,37	     2066,11	-42,7	     2119,29	-40,1
     42,3719	     2071,98	-40,0	      2122,3	-41,0
     42,3739	     2076,41	-39,4	      2135,2	-41,4
     42,3759	     2085,26	-41,2	     2141,04	-39,4
     42,3778	     2089,26	-40,7	     2134,95	-40,7
     42,3798	        2091	-39,3	     2146,69	-41,2
     42,3817	     2094,57	-38,2	     2154,16	-42,1
     42,3837	     2112,96	-39,4	     2160,94	-38,3
     42,3856	     2120,74	-41,3	     2166,87	-38,5
     42,3876	     2122,33	-40,7	     2173,07	-38,8
     42,3895	     2127,37	-36,1	     2172,77	-41,4
     42,3915	     2142,76	-38,2	     2184,29	-39,7
     42,3935	     2144,83	-37,8	     2176,51	-35,9
     42,3954	     2147,87	-34,6	      2180,8	-37,2
     42,3974	     2156,21	-36,3	     2204,94	-38,1
     42,3993	     2157,02	-38,4	     2209,88	-39,9
     42,4013	     2163,14	-38,8	     2216,92	-35,7
     42,4032	     2175,23	-33,7	     2224,68	-35,5
     42,4052	     2187,58	-34,0	     2229,83	-38,3
     42,4071	     2191,13	-36,5	     2230,45	-32,7
     42,4091	     2192,02	-36,2	     2234,05	-34,4
      42,411	     2200,48	-33,4	     2247,99	-35,4
      42,413	     2206,17	-33,5	     2256,15	-35,9
      42,415	      2200,8	-36,0	     2263,67	-33,7
     42,4169	      2208,7	-35,5	     2275,14	-32,3
     42,4189	     2223,98	-33,4	     2293,84	-33,2
     42,4208	     2222,91	-33,6	     2295,72	-32,9
     42,4228	     2230,88	-36,1	     2286,58	-32,1
     42,4247	     2228,43	-33,4	      2285,5	-32,6
     42,4267	     2241,57	-33,9	     2289,75	-34,2
     42,4286	     2244,68	-34,1	     2298,89	-32,9
     42,4306	     2249,78	-36,3	     2306,87	-31,0
     42,4326	     2264,76	-33,1	     2316,02	-34,8
     42,4345	     2279,65	-32,2	     2321,42	-35,5
     42,4365	     2280,81	-34,0	     2338,37	-34,7
     42,4384	     2290,01	-33,9	     2351,77	-29,6
     42,4404	     2290,09	-32,5	     2359,51	-31,7
     42,4423	     2293,56	-30,3	     2365,71	-32,8
     42,4443	     2314,72	-34,1	     2380,61	-31,5
     42,4462	     2308,77	-33,0	     2380,38	-30,4
     42,4482	     2319,83	-31,1	     2387,27	-28,8
     42,4501	     2316,35	-30,7	     2380,82	-32,5
     42,4521	     2320,84	-32,4	     2382,18	-31,3
     42,4541	     2322,07	-33,2	     2400,84	-28,9
      42,456	     2332,31	-29,5	     2407,04	-29,8
      42,458	     2346,29	-28,4	     2409,06	-31,6
     42,4599	     2351,63	-31,4	      2417,7	-30,9
     42,4619	     2360,73	-32,1	     2428,27	-29,1
     42,4638	      2363,8	-28,6	     2435,19	-28,2
     42,4658	     2367,99	-27,6	     2440,33	-31,5
     42,4677	     2372,73	-28,9	     2444,76	-31,0
     42,4697	      2384,4	-30,9	     2445,89	-26,4
     42,4717	     2384,59	-24,6	     2454,44	-27,2
     42,4736	     2391,88	-25,7	     2452,59	-28,7
     42,4756	     2400,36	-28,8	     2449,38	-29,0
     42,4775	     2413,37	-29,6	     2459,08	-25,2
     42,4795	     2414,55	-24,6	     2460,03	-25,9
     42,4814	      2425,2	-25,7	     2470,85	-28,2
     42,4834	     2422,71	-27,0	     2480,21	-26,8
     42,4853	     2431,44	-27,5	     2487,94	-24,2
     42,4873	     2435,59	-23,1	     2486,84	-25,5
     42,4892	     2445,43	-22,3	     2491,48	-26,5
     42,4912	     2445,11	-25,4	     2497,74	-27,0
     42,4932	     2447,76	-26,0	     2499,38	-23,2
     42,4951	     2456,93	-22,1	     2512,09	-24,6
     42,4971	     2466,13	-21,7	     2517,43	-25,9
      42,499	     2468,36	-24,0	     2517,17	-25,1
      42,501	     2471,11	-23,8	     2513,65	-21,2
     42,5029	     2477,89	-21,2	     2522,46	-23,1
     42,5049	     2486,77	-20,8	     2530,73	-24,0
     42,5068	      2498,6	-22,6	      2539,5	-22,9
     42,5088	     2503,65	-23,1	     2549,63	-18,9
     42,5108	     2517,86	-23,3	     2560,03	-21,6
     42,5127	     2506,05	-18,5	     2564,89	-21,4
     42,5147	     2506,09	-22,7	     2567,56	-21,5
     42,5166	     2517,69	-22,3	     2563,67	-22,3
     42,5186	     2521,73	-19,6	     2562,55	-19,2
     42,5205	     2531,96	-18,3	     2566,99	-22,2
     42,5225	     2543,13	-21,0	     2572,72	-19,7
     42,5244	     2545,34	-20,1	     2581,84	-19,8
     42,5264	      2539,9	-19,3	     2586,83	-18,2
     42,5283	     2550,55	-15,7	     2590,67	-18,8
     42,5303	     2552,27	-16,8	     2589,52	-20,0
     42,5323	     2551,06	-19,8	     2600,78	-17,4
     42,5342	     2560,94	-19,5	      2591,9	-15,5
     42,5362	     2570,59	-16,4	      2602,4	-15,0
     42,5381	     2574,25	-14,3	     2605,58	-18,1
     42,5401	      2573,1	-17,7	     2607,74	-16,4
      42,542	     2579,92	-18,0	     2616,26	-15,9
      42,544	     2595,52	-14,1	     2611,68	-16,1
     42,5459	     2598,05	-14,6	     2615,51	-16,5
     42,5479	     2595,53	-18,4	     2622,35	-14,9
     42,5499	     2594,85	-16,5	     2636,53	-14,2
     42,5518	      2604,9	-13,4	     2638,12	-12,8
     42,5538	     2604,19	-14,8	      2640,6	-14,1
     42,5557	     2607,36	-19,0	     2643,88	-13,3
     42,5577	     2613,77	-17,4	      2645,2	-12,9
     42,5596	     2621,12	-13,4	     2647,92	-12,8
     42,5616	     2620,88	-12,9	     2660,19	-12,6
     42,5635	     2623,91	-15,9	     2658,71	-13,6
     42,5655	     2625,49	-13,1	     2662,28	-12,8
     42,5674	     2631,97	-11,4	     2653,72	-10,3
     42,5694	     2633,54	-10,3	     2657,19	-10,1
     42,5714	     2634,59	-10,6	      2658,4	-12,9
     42,5733	     2642,99	-14,1	     2671,18	-12,6
     42,5753	     2637,71	-12,5	     2673,31	-9,0
     42,5772	      2648,8	-10,1	     2682,77	-9,7
     42,5792	     2646,33	-8,6	     2673,59	-11,6
     42,5811	     2660,55	-10,5	     2678,03	-9,9
     42,5831	     2663,83	-11,4	     2680,29	-7,3
      42,585	      2665,4	-9,8	     2680,75	-9,0
      42,587	     2671,37	-9,9	     2684,73	-10,6
      42,589	     2677,05	-8,0	      2688,1	-12,2
     42,5909	     2674,71	-10,1	     2685,59	-6,1
     42,5929	     2672,76	-8,5	     2683,36	-7,0
     42,5948	     2678,07	-6,2	     2682,05	-8,3
     42,5968	     2681,87	-6,9	     2684,08	-9,3
     42,5987	     2683,51	-6,8	     2693,54	-7,3
     42,6007	     2682,54	-8,8	     2697,68	-7,4
     42,6026	     2684,29	-6,4	      2700,2	-6,0
     42,6046	     2690,23	-6,1	     2701,65	-5,9
     42,6065	     2684,89	-5,7	     2698,23	-8,6
     42,6085	     2684,56	-6,9	     2702,48	-4,9
     42,6105	     2689,26	-6,3	     2707,02	-4,1
     42,6124	     2700,16	-5,1	     2697,93	-5,4
     42,6144	     2699,43	-4,3	     2701,36	-6,7
     42,6163	     2695,31	-5,5	     2708,74	-4,7
     42,6183	     2696,59	-4,9	     2709,88	-4,1
     42,6202	     2695,26	-2,0	     2699,36	-4,9
     42,6222	     2690,94	-1,4	     2703,32	-5,4
     42,6241	     2700,37	-4,6	     2704,02	-2,9
     42,6261	     2697,22	-3,2	     2706,75	-3,2
     42,6281	     2705,87	 0,4	     2703,65	-1,6
       42,63	     2713,99	-1,2	     2713,06	-5,0
      42,632	     2708,78	-2,4	     2710,31	-3,0
     42,6339	     2704,35	-2,4	     2715,09	-3,9
     42,6359	      2701,4	-3,6	     2723,05	 0,4
     42,6378	     2712,45	 1,5	     2725,06	-0,9
     42,6398	     2711,97	-0,0	     2722,49	-1,7
     42,6417	     2708,93	-1,5	     2727,65	-3,6
     42,6437	     2702,74	-0,2	     2730,76	-1,2
     42,6456	     2701,65	-0,2	     2717,42	 0,7
     42,6476	     2707,65	 1,2	      2720,5	-0,8
     42,6496	     2710,06	 1,0	     2708,41	-1,4
     42,6515	     2711,58	-0,1	     2703,38	-2,4
     42,6535	     2697,62	 3,0	     2708,77	 0,8
     42,6554	     2699,85	 0,4	     2701,31	 0,5
     42,6574	     2710,16	 3,2	     2704,48	 0,3
     42,6593	     2710,58	 2,0	     2696,51	 2,1
     42,6613	     2706,37	 1,7	     2703,69	 1,6
     42,6632	     2707,61	-1,0	     2699,49	 3,5
     42,6652	     2711,75	 4,2	     2693,18	 1,7
     42,6672	     2712,96	 2,9	     2691,79	 2,2
     42,6691	     2710,95	 0,7	     2691,06	 2,4
     42,6711	     2706,96	 1,9	     2683,86	 3,0
      42,673	     2700,53	 3,4	     2692,04	 4,1
      42,675	     2700,62	 4,8	      2690,9	 4,6
     42,6769	     2699,56	 2,0	     2696,78	 2,7
     42,6789	     2708,77	 3,0	     2694,96	 4,8
     42,6808	     2703,08	 4,4	     2700,93	 6,9
     42,6828	     2704,84	 4,9	     2688,22	 7,1
     42,6847	     2701,16	 5,6	     2688,42	 3,9
     42,6867	     2698,46	 3,8	     2689,77	 5,1
     42,6887	     2693,27	 4,0	     2689,56	 6,7
     42,6906	     2693,65	 4,6	        2685	 8,1
     42,6926	     2694,69	 7,7	     2674,52	 8,1
     42,6945	     2696,33	 6,1	     2669,75	 5,4
     42,6965	     2689,88	 5,3	     2672,42	 5,9
     42,6984	     2694,65	 6,3	      2674,8	 8,9
     42,7004	     2681,76	 7,5	     2669,11	 8,6
     42,7023	     2683,78	 9,8	     2667,88	 8,5
     42,7043	     2683,31	11,0	     2656,11	 8,1
     42,7063	     2680,84	 5,9	     2650,15	 9,9
     42,7082	     2673,03	 6,9	     2650,63	10,0
     42,7102	     2674,07	10,5	     2651,52	11,0
     42,7121	     2672,26	11,7	      2650,7	10,8
     42,7141	     2676,18	 7,3	     2642,41	 8,5
      42,716	     2672,04	10,7	     2646,07	 6,9
      42,718	     2673,84	11,2	     2651,17	11,9
     42,7199	     2665,53	12,8	     2649,45	10,6
     42,7219	      2663,7	12,4	     2642,51	10,5
     42,7239	     2656,62	12,4	     2644,58	10,0
     42,7258	     2650,85	10,9	        2642	12,8
     42,7278	     2649,64	13,0	     2638,05	11,2
     42,7297	     2645,28	11,5	     2624,43	13,6
     42,7317	     2644,83	13,8	     2616,75	10,3
     42,7336	     2640,14	12,9	     2620,27	11,6
     42,7356	     2635,96	13,1	     2628,18	12,8
     42,7375	     2633,12	12,7	     2623,49	15,3
     42,7395	     2633,88	16,2	     2613,84	13,3
     42,7414	     2636,32	15,1	     2605,31	11,0
     42,7434	      2626,5	13,7	     2594,16	11,6
     42,7454	     2623,88	13,4	     2604,24	15,0
     42,7473	     2616,25	15,1	     2596,81	14,8
     42,7493	     2613,99	13,9	     2585,55	13,3
     42,7512	     2605,66	16,6	     2582,69	13,1
     42,7532	     2608,69	13,8	     2587,44	14,4
     42,7551	     2601,16	15,1	     2580,61	15,3
     42,7571	     2596,39	15,1	     2566,92	16,8
      42,759	     2603,99	16,9	     2574,64	15,4
      42,761	     2605,06	17,3	     2575,09	17,8
      42,763	     2587,96	14,4	     2574,26	15,2
     42,7649	     2577,57	12,6	     2568,95	16,3
     42,7669	     2583,34	17,2	     2569,69	18,4
     42,7688	     2584,23	17,4	     2552,63	16,2
     42,7708	     2582,01	16,5	     2548,81	17,8
     42,7727	      2586,5	17,1	     2548,21	17,9
     42,7747	     2577,53	17,9	     2551,57	20,2
     42,7766	     2566,48	19,8	     2544,76	19,4
     42,7786	     2552,11	19,3	     2537,12	21,8
     42,7805	     2563,35	18,0	      2533,8	18,2
     42,7825	     2558,34	19,5	     2533,22	18,7
     42,7845	     2548,01	18,8	     2532,26	18,0
     42,7864	     2540,87	19,8	     2524,69	22,5
     42,7884	     2543,32	23,0	     2528,56	21,1
     42,7903	     2532,65	22,7	     2521,24	18,4
     42,7923	     2530,28	21,4	     2513,98	17,8
     42,7942	     2523,27	18,7	     2505,36	17,6
     42,7962	     2518,16	22,8	     2507,08	21,3
     42,7981	     2522,16	22,3	     2486,24	20,9
     42,8001	     2515,25	20,9	     2479,25	19,9
     42,8021	     2517,34	21,0	     2482,02	20,5
      42,804	     2511,44	21,0	     2488,82	21,2
      42,806	     2501,99	21,1	     2484,69	23,4
     42,8079	     2495,64	23,5	     2473,51	20,6
     42,8099	        2506	23,8	     2464,82	23,2
     42,8118	     2492,99	21,0	     2468,13	22,0
     42,8138	     2494,09	22,0	     2463,14	23,4
     42,8157	     2474,11	22,2	     2455,18	24,9
     42,8177	      2480,8	23,2	     2443,09	26,3
     42,8196	     2477,61	24,0	     2438,27	24,3
     42,8216	      2471,5	23,9	     2434,49	23,8
     42,8236	     2461,36	22,6	     2428,31	24,7
     42,8255	     2462,32	22,4	     2436,38	24,5
     42,8275	     2443,59	24,8	     2421,64	27,5
     42,8294	     2448,45	27,6	     2418,01	25,6
     42,8314	      2444,2	25,5	     2409,72	24,5
     42,8333	     2431,08	25,8	     2405,71	23,4
     42,8353	     2421,93	25,6	     2404,89	23,1
     42,8372	     2416,46	27,6	     2397,82	28,1
     42,8392	     2410,33	27,0	      2392,2	26,5
     42,8412	      2409,3	29,5	     2385,07	24,5
     42,8431	     2398,49	28,1	     2379,01	26,0
     42,8451	     2391,63	25,1	     2377,09	25,5
      42,847	      2398,2	25,6	     2370,17	26,7
      42,849	     2396,72	30,1	     2371,56	27,8
     42,8509	     2397,98	27,3	     2363,05	28,9
     42,8529	     2376,73	25,8	     2360,79	26,5
     42,8548	     2377,96	25,9	     2359,59	26,1
     42,8568	     2369,42	27,4	     2359,34	29,4
     42,8587	     2366,54	28,4	     2356,24	30,9
     42,8607	     2363,82	28,5	     2336,54	28,7
     42,8627	     2364,65	30,0	     2331,55	28,7
     42,8646	     2347,94	27,6	     2322,52	28,7
     42,8666	     2345,37	26,6	     2325,59	29,2
     42,8685	     2347,99	29,7	      2319,7	31,5
     42,8705	     2338,83	31,6	     2322,76	30,9
     42,8724	     2336,78	30,1	     2308,99	29,5
     42,8744	     2330,91	30,7	     2310,21	27,3
     42,8763	     2321,94	28,6	     2299,17	26,5
     42,8783	      2320,7	29,9	     2303,45	29,7
     42,8803	     2313,18	32,6	     2300,77	31,1
     42,8822	     2308,24	34,6	     2290,31	30,2
     42,8842	      2301,4	31,9	     2276,04	27,9
     42,8861	     2294,63	31,0	     2270,39	28,7
     42,8881	     2294,71	30,4	     2271,43	31,4
       42,89	     2287,01	30,8	     2260,28	32,7
      42,892	     2294,37	31,1	     2241,25	32,0
     42,8939	     2286,54	32,3	     2238,63	31,1
     42,8959	      2278,6	32,2	     2242,71	33,1
     42,8979	     2267,91	29,6	     2244,63	32,7
     42,8998	     2267,61	29,8	     2242,75	32,2
     42,9018	     2271,62	33,5	     2239,56	35,1
     42,9037	     2270,47	35,4	     2234,12	34,2
     42,9057	     2254,26	33,6	     2226,24	30,8
     42,9076	     2251,63	34,1	     2222,24	30,8
     42,9096	     2242,43	33,2	     2221,66	32,8
     42,9115	     2230,46	34,2	     2216,33	32,4
     42,9135	     2226,99	36,2	     2211,77	34,3
     42,9154	     2218,62	38,4	     2208,78	32,5
     42,9174	     2207,91	34,9	     2192,91	31,1
     42,9194	     2204,78	34,8	      2184,6	31,0
     42,9213	     2195,51	34,4	     2178,48	34,3
     42,9233	     2199,81	32,3	     2177,72	35,8
     42,9252	     2200,62	36,1	     2180,75	33,8
     42,9272	     2207,31	35,1	     2174,26	35,5
     42,9291	     2191,12	35,6	     2170,71	35,8
     42,9311	     2184,14	33,8	     2171,05	34,4
      42,933	     2173,15	34,9	     2161,81	36,1
      42,935	     2178,36	35,8	     2147,29	37,4
      42,937	     2179,46	37,2	     2146,03	36,9
     42,9389	     2167,21	39,1	     2143,61	36,0
     42,9409	     2157,49	35,3	     2140,53	35,4
     42,9428	     2147,37	36,4	     2129,74	36,2
     42,9448	     2142,78	38,6	      2129,7	37,0
     42,9467	     2135,74	38,2	     2119,39	38,8
     42,9487	     2136,25	41,7	     2116,05	38,1
     42,9506	     2129,48	39,3	     2115,03	34,9
     42,9526	     2117,72	37,9	     2112,54	35,3
     42,9545	     2114,38	35,7	     2100,84	35,9
     42,9565	     2119,67	35,9	     2105,17	38,4
     42,9585	     2111,69	38,8	     2090,03	40,2
     42,9604	     2112,43	38,5	     2077,28	38,8
     42,9624	     2102,19	37,1	      2076,1	39,2
     42,9643	     2106,08	36,5	     2067,16	37,6
     42,9663	     2097,21	37,1	     2063,42	37,0
     42,9682	     2080,62	39,4	     2061,64	40,8
     42,9702	     2075,52	40,7	     2065,76	40,9
     42,9721	     2074,82	41,4	     2054,92	39,2
     42,9741	     2077,91	39,8	     2051,03	38,2
     42,9761	     2065,71	40,7	     2041,67	37,5
      42,978	     2061,68	40,2	     2047,99	38,9
       42,98	     2050,84	39,0	     2036,59	38,8
     42,9819	     2042,39	42,1	     2037,29	39,5
     42,9839	     2041,04	41,7	     2035,68	40,3
     42,9858	     2034,86	42,2	     2028,14	37,5
     42,9878	     2027,63	37,7	     2015,47	38,5
     42,9897	     2029,83	38,6	     2015,71	40,7
     42,9917	     2024,62	38,8	     2015,12	41,1
     42,9936	     2025,41	40,8	     2009,98	42,9
     42,9956	     2022,53	42,6	     2002,18	42,2
     42,9976	     2013,17	40,3	     2000,27	40,7
     42,9995	     2011,13	41,5	     1979,97	40,1
     43,0015	     2000,12	39,1	     1979,33	38,2
     43,0034	     1989,54	42,1	     1982,53	41,9
     43,0054	     1988,22	44,7	     1985,14	41,6
     43,0073	     1980,79	45,3	     1974,57	40,6
     43,0093	     1981,98	43,5	     1966,56	41,0
     43,0112	     1977,61	42,3	     1961,44	39,3
     43,0132	     1972,78	41,8	     1957,82	40,0
     43,0152	     1970,09	40,5	     1954,98	43,1
     43,0171	     1961,24	44,3	     1954,33	44,5
     43,0191	     1956,91	42,3	        1940	42,1
      43,021	     1946,96	41,7	     1937,25	44,4
      43,023	     1952,54	43,1	      1933,6	43,2
     43,0249	     1940,92	41,6	     1925,64	42,5
     43,0269	     1937,17	41,8	     1922,58	39,5
     43,0288	     1928,93	44,3	     1914,98	44,5
     43,0308	     1924,21	46,1	     1914,85	44,0
     43,0327	     1916,34	46,2	      1906,9	41,3
     43,0347	     1908,91	44,6	     1905,07	41,9
     43,0367	     1902,61	43,5	     1903,32	41,4
     43,0386	     1900,54	41,8	     1891,02	42,4
     43,0406	     1898,03	43,6	      1890,9	45,3
     43,0425	        1893	42,3	     1876,06	46,1
     43,0445	     1898,38	46,2	     1875,51	43,6
     43,0464	     1889,47	46,0	      1878,4	47,0
     43,0484	     1889,78	44,6	     1862,87	43,5
     43,0503	     1880,31	44,1	      1874,7	43,9
     43,0523	     1872,01	45,7	     1867,13	43,2
     43,0543	      1873,4	46,0	     1872,86	46,5
     43,0562	      1862,6	46,9	     1865,98	43,9
     43,0582	      1850,2	49,3	     1847,82	43,5
     43,0601	      1851,7	47,8	     1841,18	44,8
     43,0621	     1847,48	45,5	     1840,63	42,7
      43,064	     1844,41	44,7	     1831,35	44,8
      43,066	      1838,1	44,5	     1831,49	44,6
     43,0679	      1837,1	45,0	     1829,17	47,4
     43,0699	      1836,3	47,7	      1824,6	48,8
     43,0718	     1828,53	46,5	     1818,72	46,7
     43,0738	     1822,59	45,7	      1820,3	45,6
     43,0758	     1819,72	48,1	     1808,48	44,9
     43,0777	     1812,43	45,6	     1804,56	45,9
     43,0797	      1807,1	45,3	     1809,21	46,0
     43,0816	     1814,83	49,3	      1807,3	47,3
     43,0836	     1804,53	47,5	     1798,51	47,7
     43,0855	     1797,43	47,8	     1786,62	46,4
     43,0875	     1798,61	48,0	     1777,68	45,9
     43,0894	     1792,38	44,6	     1774,96	47,0
     43,0914	     1791,59	45,9	     1767,37	47,2
     43,0934	     1785,33	47,3	     1771,56	50,1
     43,0953	     1787,64	47,2	     1774,11	49,6
     43,0973	     1776,47	49,3	     1768,55	48,5
     43,0992	     1759,42	50,3	     1760,54	47,2
     43,1012	      1754,5	49,6	     1757,45	45,4
     43,1031	     1755,23	50,0	      1756,2	44,8
     43,1051	      1743,6	48,9	     1745,11	46,0
      43,107	      1742,4	46,5	     1740,22	49,1
      43,109	     1746,64	50,3	     1731,47	49,2
     43,1109	     1741,03	48,6	     1727,05	49,6
     43,1129	     1731,69	48,5	     1718,76	47,2
     43,1149	        1735	51,2	     1723,06	49,7
     43,1168	     1731,16	46,0	     1727,71	46,9
     43,1188	     1729,54	48,5	     1711,05	47,9
     43,1207	     1724,53	50,0	     1714,86	48,0
     43,1227	     1715,73	50,9	     1721,61	48,3
     43,1246	     1710,25	52,7	     1710,41	50,7
     43,1266	      1710,8	53,7	     1704,59	48,8
     43,1285	     1703,54	50,5	     1705,32	49,7
     43,1305	     1702,72	48,4	     1692,41	48,5
     43,1325	     1699,33	47,9	     1696,87	49,7
     43,1344	     1697,24	49,6	     1689,36	51,1
     43,1364	     1703,06	49,4	     1692,96	51,7
     43,1383	      1690,1	50,2	     1690,11	50,7
     43,1403	     1683,19	52,2	     1672,57	51,1
     43,1422	      1679,5	51,5	     1666,34	49,9
     43,1442	     1672,18	50,8	     1654,72	47,0
     43,1461	      1656,7	51,3	     1654,67	49,7
     43,1481	     1657,58	51,7	     1655,08	49,5
       43,15	     1649,39	50,6	     1651,71	51,0
      43,152	     1653,02	53,3	     1647,67	53,9
      43,154	     1651,42	51,4	     1647,89	54,6
     43,1559	     1658,14	50,9	     1634,95	51,0
     43,1579	     1654,93	52,3	      1640,1	51,0
     43,1598	     1645,72	50,0	     1637,13	49,9
     43,1618	     1629,48	51,0	     1639,97	48,7
     43,1637	     1629,37	52,4	     1637,31	50,2
     43,1657	     1625,36	53,2	     1623,35	51,2
     43,1676	     1622,26	54,7	     1622,31	50,9
     43,1696	        1617	53,5	     1622,75	53,8
     43,1716	      1608,5	53,6	     1612,19	51,0
     43,1735	     1600,23	50,3	     1607,97	51,9
     43,1755	     1605,25	49,5	     1599,42	50,9
     43,1774	     1608,91	49,4	     1599,59	50,6
     43,1794	     1612,24	53,0	     1595,78	51,2
     43,1813	     1592,76	54,6	     1596,84	53,2
     43,1833	      1588,4	55,3	     1596,97	52,6
     43,1852	     1586,33	55,1	     1592,71	53,4
     43,1872	     1576,65	52,2	     1569,96	49,3
     43,1891	     1576,93	52,8	     1560,87	52,0
     43,1911	     1579,31	50,5	     1567,32	52,5
     43,1931	     1566,49	50,9	     1567,03	53,2
      43,195	     1570,68	50,4	     1572,73	55,7
      43,197	     1565,74	53,2	     1568,13	52,8
     43,1989	     1569,67	54,8	     1567,37	53,5
     43,2009	     1564,31	54,2	     1569,52	52,1
     43,2028	     1556,34	55,0	     1559,73	53,4
     43,2048	     1541,68	53,3	     1552,03	51,0
     43,2067	     1539,97	53,3	     1543,19	52,3
     43,2087	     1539,76	53,9	     1532,91	53,7
     43,2107	     1536,51	52,0	     1529,73	53,1
     43,2126	     1539,31	54,9	     1528,87	55,3
     43,2146	     1542,02	54,9	     1536,93	52,5
     43,2165	     1533,19	52,0	     1537,46	54,2
     43,2185	     1534,76	55,0	     1526,55	50,9
     43,2204	     1526,87	53,7	     1520,69	53,1
     43,2224	     1516,79	55,5	     1512,94	53,9
     43,2243	     1516,68	57,0	     1508,61	54,0
     43,2263	     1518,06	56,4	     1509,19	54,9
     43,2282	     1508,98	56,5	      1501,4	57,0
     43,2302	     1511,83	55,0	     1500,14	55,3
     43,2322	     1510,48	56,1	     1504,53	55,0
     43,2341	     1495,36	53,5	     1498,31	54,5
     43,2361	     1496,48	55,7	     1490,76	50,4
      43,238	     1492,54	54,4	     1490,54	54,4
       43,24	     1486,74	54,3	     1484,31	54,6
     43,2419	     1490,11	57,7	     1476,88	54,7
     43,2439	     1481,81	56,5	     1474,78	57,1
     43,2458	     1481,13	56,6	     1475,18	56,8
     43,2478	     1479,47	55,7	     1465,52	56,7
     43,2498	     1464,76	53,5	     1474,11	56,5
     43,2517	     1466,59	53,6	     1469,92	52,3
     43,2537	     1459,17	54,3	     1460,48	52,7
     43,2556	      1458,8	55,5	     1456,55	53,2
     43,2576	     1451,73	58,2	     1444,21	55,7
     43,2595	     1446,36	57,1	      1445,1	56,6
     43,2615	     1448,07	57,2	     1448,67	58,6
     43,2634	     1449,97	56,4	     1453,21	56,5
     43,2654	     1439,53	54,0	     1443,94	56,2
     43,2673	      1446,5	54,9	     1441,82	55,6
     43,2693	     1435,32	53,8	     1432,88	54,8
     43,2713	     1422,48	56,3	     1424,63	54,3
     43,2732	     1423,79	56,8	     1420,32	54,6
     43,2752	      1420,8	58,9	        1423	56,7
     43,2771	     1415,63	60,3	     1424,36	60,2
     43,2791	     1424,66	56,7	     1428,39	58,3
      43,281	      1417,3	55,1	     1422,44	57,5
      43,283	     1426,11	56,0	     1414,95	57,1
     43,2849	     1414,01	54,1	     1413,66	57,3
     43,2869	     1405,17	55,9	     1408,74	53,7
     43,2889	     1409,47	58,5	     1404,85	55,6
     43,2908	      1402,7	58,9	     1398,93	55,5
     43,2928	     1398,68	60,9	     1392,39	58,8
     43,2947	     1397,66	59,7	     1386,63	58,5
     43,2967	     1390,13	58,1	     1392,18	58,8
     43,2986	     1386,73	56,8	     1390,25	57,8
     43,3006	     1388,85	56,8	     1385,56	57,0
     43,3025	     1382,53	55,2	     1385,58	57,8
     43,3045	     1379,98	57,3	     1374,25	55,8
     43,3064	      1373,7	57,4	     1365,08	58,1
     43,3084	     1371,55	60,1	     1371,94	57,8
     43,3104	     1370,42	59,1	     1368,02	57,3
     43,3123	     1362,37	58,8	     1369,59	59,5
     43,3143	     1356,86	59,1	     1372,46	58,9
     43,3162	     1357,78	56,3	     1366,03	58,0
     43,3182	     1354,67	55,6	     1363,06	58,3
     43,3201	     1355,99	59,0	     1360,51	57,1
     43,3221	     1355,75	58,3	     1349,43	58,0
      43,324	     1351,03	58,0	        1341	57,7
      43,326	     1353,99	62,6	     1343,07	57,3
      43,328	     1342,29	58,4	     1348,21	59,4
     43,3299	     1328,57	59,9	     1346,23	57,6
     43,3319	     1323,88	59,9	     1346,43	59,5
     43,3338	     1331,21	58,3	     1332,36	58,8
     43,3358	      1330,7	58,9	     1326,11	56,8
     43,3377	     1326,04	60,2	     1326,81	60,0
     43,3397	     1326,56	58,5	     1317,92	59,7
     43,3416	     1326,43	57,0	      1322,5	58,2
     43,3436	     1328,04	58,2	     1311,23	59,1
     43,3456	      1330,4	57,9	      1313,7	57,1
     43,3475	      1324,7	60,2	     1319,81	58,6
     43,3495	     1322,05	62,0	     1314,04	57,3
     43,3514	     1311,55	59,1	     1314,64	58,8
     43,3534	     1302,53	59,8	     1302,72	61,5
     43,3553	      1300,3	59,6	     1295,53	60,8
     43,3573	     1292,65	59,1	     1294,16	60,3
     43,3592	     1291,75	58,2	     1298,29	58,4
     43,3612	     1297,77	57,3	     1294,17	57,5
     43,3631	     1292,88	59,7	     1291,52	56,1
     43,3651	     1295,36	60,4	     1281,58	58,3
     43,3671	     1282,34	61,7	     1278,79	59,8
      43,369	        1281	61,8	     1278,75	61,9
      43,371	     1278,41	62,2	     1282,65	62,9
     43,3729	     1268,41	60,9	     1278,51	61,0
     43,3749	     1269,42	59,2	     1272,78	61,1
     43,3768	     1273,89	56,2	     1272,17	58,3
     43,3788	     1279,96	58,2	     1259,08	61,0
     43,3807	     1275,66	59,1	     1263,76	58,4
     43,3827	      1265,2	61,1	      1262,2	59,9
     43,3847	     1264,89	62,0	     1258,24	60,9
     43,3866	      1263,5	60,6	     1251,64	58,9
     43,3886	     1265,66	61,9	     1253,97	60,9
     43,3905	      1255,7	61,3	     1253,91	59,8
     43,3925	     1254,76	59,5	     1251,25	58,8
     43,3944	     1260,46	60,4	     1239,81	62,2
     43,3964	      1253,8	60,3	     1241,28	61,3
     43,3983	     1243,92	59,9	     1242,38	62,8
     43,4003	     1237,65	58,8	     1234,41	60,8
     43,4022	      1237,6	60,8	     1245,58	60,6
     43,4042	     1233,18	59,4	      1243,9	59,7
     43,4062	     1236,51	61,7	     1235,31	58,9
     43,4081	        1239	61,7	     1239,57	60,1
     43,4101	     1244,07	62,3	     1227,49	61,6
      43,412	     1243,74	63,2	     1228,54	63,5
      43,414	     1229,57	62,3	     1225,22	64,5
     43,4159	      1224,4	60,1	     1224,21	62,2
     43,4179	     1213,48	60,4	     1223,69	61,3
     43,4198	     1208,33	59,9	     1223,67	59,4
     43,4218	     1201,06	60,8	     1213,14	62,3
     43,4238	     1208,85	62,5	     1205,32	61,2
     43,4257	     1202,67	62,2	      1210,8	62,7
     43,4277	     1212,12	64,2	     1210,57	61,8
     43,4296	     1211,87	62,6	     1210,21	64,0
     43,4316	     1206,76	61,1	     1211,22	63,2
     43,4335	     1206,73	62,8	     1198,42	60,5
     43,4355	     1195,98	61,4	     1196,13	62,8
     43,4374	     1194,96	63,2	     1190,39	63,3
     43,4394	     1186,62	61,9	     1189,23	64,0
     43,4413	     1187,16	60,9	      1194,4	63,7
     43,4433	     1182,76	61,8	     1180,86	60,2
     43,4453	     1184,92	62,6	     1182,93	59,8
     43,4472	     1186,75	61,6	     1170,56	59,7
     43,4492	     1186,72	62,6	     1167,78	61,1
     43,4511	     1187,26	63,6	     1169,46	62,4
     43,4531	     1179,04	65,6	      1173,6	64,0
      43,455	     1168,21	63,8	     1174,49	64,1
      43,457	     1170,74	63,0	     1170,64	62,1
     43,4589	     1165,94	60,6	     1174,67	63,0
     43,4609	     1164,99	61,2	     1175,97	62,0
     43,4629	     1165,29	60,8	     1161,15	60,3
     43,4648	     1166,82	62,2	     1155,98	63,2
     43,4668	     1166,57	64,3	     1152,36	62,2
     43,4687	     1158,55	61,9	     1159,31	63,2
     43,4707	      1150,5	62,7	     1155,95	61,7
     43,4726	     1155,45	63,0	     1151,99	60,4
     43,4746	     1157,56	63,2	     1145,15	61,9
     43,4765	     1158,08	65,6	     1141,91	62,3
     43,4785	     1149,38	65,5	     1148,95	64,4
     43,4804	     1142,75	65,1	     1142,44	65,8
     43,4824	     1140,87	63,9	     1137,04	65,2
     43,4844	     1141,34	62,6	     1140,38	64,6
     43,4863	     1133,33	60,6	     1132,54	63,3
     43,4883	     1141,06	61,8	     1127,67	62,1
     43,4902	     1146,63	62,5	     1121,59	64,8
     43,4922	     1144,56	63,6	     1121,79	63,8
     43,4941	     1137,01	64,2	     1123,68	64,6
     43,4961	     1119,53	63,2	      1123,9	61,1
      43,498	     1112,88	64,6	     1112,45	60,7
        43,5	      1116,8	63,4	     1105,61	63,6

