X-Data [Hz]	Piezo (M - Filtered) [mV]	Phase [Deg]	Piezo (M - Filtered) [mV]	Phase [Deg]	
	002: [07-09-24 14:52]		003: [07-09-24 14:56]	
        40,5	     630,397	-82,1	     659,922	-82,1
     40,5029	     658,694	-80,6	     653,277	-83,6
     40,5059	     659,948	-81,3	     659,001	-78,8
     40,5088	     654,409	-80,2	      658,44	-83,1
     40,5117	     662,259	-80,3	     667,547	-83,4
     40,5147	     672,914	-83,2	     653,884	-81,7
     40,5176	     665,697	-81,2	     661,216	-82,0
     40,5205	     674,471	-82,2	     659,618	-82,0
     40,5235	     669,947	-80,1	     662,627	-80,7
     40,5264	     671,389	-79,2	     657,968	-82,4
     40,5293	     676,666	-80,1	     671,574	-79,6
     40,5323	     668,037	-79,0	     653,211	-80,7
     40,5352	     668,549	-81,4	     667,176	-79,6
     40,5381	     673,152	-81,7	     672,995	-80,8
     40,5411	     670,296	-79,7	     665,614	-83,9
      40,544	     672,091	-79,3	     663,803	-80,3
     40,5469	     681,181	-80,2	     674,321	-79,2
     40,5499	     676,289	-80,2	     672,544	-81,5
     40,5528	     676,518	-82,4	     671,454	-79,4
     40,5557	     673,862	-81,7	      670,75	-81,5
     40,5587	     675,442	-79,3	     684,322	-82,4
     40,5616	     670,464	-82,9	     669,033	-80,6
     40,5645	     679,803	-80,4	     676,644	-82,5
     40,5674	     678,463	-80,1	     682,588	-81,6
     40,5704	     673,931	-82,8	     676,125	-81,1
     40,5733	     683,227	-80,6	     680,716	-82,4
     40,5762	     686,034	-83,1	     678,136	-82,5
     40,5792	     681,942	-81,5	     681,213	-81,8
     40,5821	     687,094	-80,2	     681,377	-84,6
      40,585	     683,757	-81,0	     681,539	-79,5
      40,588	     689,987	-82,4	     688,279	-82,9
     40,5909	     692,965	-80,7	     679,775	-80,0
     40,5938	     689,362	-83,0	     685,581	-83,2
     40,5968	     690,314	-81,8	     677,978	-82,6
     40,5997	     683,238	-81,0	     689,853	-82,8
     40,6026	     696,561	-81,7	     687,511	-81,1
     40,6056	      690,82	-81,0	     680,474	-80,1
     40,6085	     694,663	-81,3	     688,769	-79,1
     40,6114	     699,394	-82,6	     695,096	-82,3
     40,6144	     687,721	-81,3	      691,74	-83,5
     40,6173	     700,225	-82,1	     692,248	-81,2
     40,6202	     696,473	-83,3	     685,553	-82,0
     40,6232	     691,056	-80,7	     697,153	-78,4
     40,6261	     698,179	-83,1	     689,351	-80,9
      40,629	     695,805	-80,7	     697,289	-82,6
      40,632	     704,177	-80,8	     699,195	-80,8
     40,6349	     709,507	-80,1	      695,57	-81,5
     40,6378	     697,814	-78,9	      704,57	-81,8
     40,6408	     706,981	-79,6	     690,312	-78,6
     40,6437	     704,744	-81,2	     704,757	-80,5
     40,6466	     703,183	-82,0	     697,732	-78,6
     40,6496	     708,652	-81,0	     709,099	-80,1
     40,6525	     702,706	-82,3	      702,13	-80,3
     40,6554	      717,82	-78,4	     699,334	-79,6
     40,6584	     705,768	-79,3	     714,032	-80,5
     40,6613	     717,734	-81,8	     711,503	-82,0
     40,6642	     704,292	-78,1	     704,943	-79,9
     40,6672	      714,76	-80,4	     709,223	-79,2
     40,6701	     716,701	-81,4	     707,486	-81,0
      40,673	     711,298	-80,4	      711,02	-80,0
      40,676	     723,381	-78,6	     710,527	-80,0
     40,6789	     715,464	-81,1	      713,31	-81,3
     40,6818	      716,59	-78,4	     713,073	-79,2
     40,6847	     717,016	-80,3	     718,277	-81,0
     40,6877	     713,496	-82,2	      720,87	-81,6
     40,6906	     724,954	-80,6	     714,006	-80,5
     40,6936	     727,749	-80,2	     720,615	-81,3
     40,6965	     719,143	-80,8	     721,746	-81,4
     40,6994	     723,748	-79,9	       716,5	-79,5
     40,7023	     716,631	-80,7	     727,987	-80,2
     40,7053	     727,032	-79,8	     723,585	-80,6
     40,7082	     722,573	-79,0	     720,262	-80,5
     40,7111	     734,572	-80,3	     720,872	-80,2
     40,7141	     726,396	-79,6	     718,505	-80,3
      40,717	     725,416	-78,7	      725,09	-79,3
     40,7199	     732,529	-79,7	      730,14	-81,6
     40,7229	     743,981	-81,9	     727,082	-79,1
     40,7258	     723,167	-81,1	     716,919	-78,5
     40,7287	     742,651	-78,7	     732,037	-80,3
     40,7317	      724,98	-80,5	     724,993	-82,2
     40,7346	     741,433	-79,3	     731,202	-81,1
     40,7375	     733,296	-79,4	     734,718	-81,1
     40,7405	     735,678	-81,9	     726,233	-80,6
     40,7434	      746,41	-82,4	     735,936	-79,5
     40,7463	      741,06	-79,5	     732,669	-81,0
     40,7493	      741,58	-82,1	     740,221	-79,9
     40,7522	     735,959	-81,6	     730,816	-79,3
     40,7551	     754,488	-79,8	     738,205	-80,3
     40,7581	     738,676	-81,3	     739,778	-81,5
      40,761	     749,815	-79,3	     736,915	-79,4
     40,7639	     746,764	-79,5	     738,452	-81,4
     40,7669	     753,401	-81,8	     753,508	-82,2
     40,7698	     752,123	-79,0	     739,961	-80,7
     40,7727	     745,495	-79,7	     747,523	-80,7
     40,7757	      744,07	-79,4	      736,82	-80,6
     40,7786	     748,598	-80,3	      753,19	-78,8
     40,7815	     749,586	-79,0	     736,616	-80,5
     40,7845	      761,92	-80,8	     754,016	-81,9
     40,7874	     753,702	-82,7	     740,003	-80,0
     40,7903	     750,492	-80,3	     751,526	-80,0
     40,7933	      760,92	-79,3	     752,525	-80,1
     40,7962	     757,986	-82,2	     756,946	-79,6
     40,7991	      747,36	-79,8	      760,62	-79,9
     40,8021	     759,567	-77,8	     750,508	-81,3
      40,805	     763,106	-81,6	     763,102	-80,2
     40,8079	     762,911	-78,4	     755,987	-79,6
     40,8109	     750,244	-79,4	     767,245	-82,0
     40,8138	     769,427	-81,3	     760,929	-81,2
     40,8167	     757,006	-80,3	     775,487	-82,4
     40,8196	     772,503	-78,9	     752,044	-81,6
     40,8226	     765,148	-80,5	     766,348	-80,9
     40,8255	     771,237	-79,6	     758,584	-78,2
     40,8284	     771,592	-79,0	     764,286	-79,6
     40,8314	     764,028	-80,4	     774,843	-80,4
     40,8343	     764,977	-80,2	       768,1	-79,5
     40,8372	      777,93	-78,2	     775,194	-80,0
     40,8402	     772,931	-77,7	     766,406	-81,9
     40,8431	     778,137	-79,9	     773,978	-78,3
      40,846	     778,846	-78,4	     770,521	-81,6
      40,849	     774,058	-77,8	     778,303	-79,8
     40,8519	     772,314	-80,9	     773,329	-79,7
     40,8548	     783,941	-79,9	     779,642	-78,1
     40,8578	     779,084	-78,6	     782,932	-80,0
     40,8607	     793,664	-80,2	     767,239	-78,5
     40,8636	     785,282	-82,4	     777,137	-77,8
     40,8666	     780,294	-80,1	     781,656	-80,0
     40,8695	     788,909	-79,9	      785,37	-78,0
     40,8724	      785,24	-80,8	     784,159	-79,0
     40,8754	     787,722	-81,6	     792,887	-80,7
     40,8783	     786,035	-78,0	     783,355	-82,0
     40,8812	     795,422	-79,9	     796,553	-80,7
     40,8842	     786,504	-79,6	     790,362	-80,9
     40,8871	     784,723	-78,6	      795,07	-81,1
       40,89	     799,292	-79,8	     794,089	-80,9
      40,893	     791,708	-78,6	     795,619	-78,9
     40,8959	     795,165	-80,1	     798,663	-79,3
     40,8988	     802,377	-78,8	     789,871	-80,0
     40,9018	     787,949	-79,2	     801,143	-78,2
     40,9047	     802,651	-79,7	     793,158	-78,0
     40,9076	     798,442	-80,2	      797,82	-79,7
     40,9106	     796,769	-78,0	     803,842	-79,3
     40,9135	      814,94	-79,4	     803,288	-77,7
     40,9164	      812,42	-79,6	     800,887	-80,3
     40,9194	     799,954	-79,6	     801,676	-81,0
     40,9223	     806,027	-79,1	     811,284	-79,9
     40,9252	      804,01	-80,7	     805,834	-79,9
     40,9282	     810,615	-79,6	      807,33	-80,0
     40,9311	     806,896	-79,0	     811,281	-79,6
      40,934	     811,085	-78,7	     814,234	-79,3
      40,937	     809,646	-80,1	     816,612	-80,0
     40,9399	     803,718	-77,5	      810,49	-79,7
     40,9428	     818,326	-79,0	     811,001	-79,8
     40,9457	     816,167	-79,4	     812,098	-79,6
     40,9487	     825,732	-79,0	     813,252	-79,8
     40,9516	     819,433	-79,2	     824,303	-80,1
     40,9545	     820,054	-78,1	     822,207	-80,6
     40,9575	      820,06	-79,5	     829,599	-79,8
     40,9604	     826,841	-78,9	      811,82	-79,6
     40,9633	     827,741	-79,0	     840,089	-78,9
     40,9663	     823,427	-78,9	     820,324	-78,1
     40,9692	     826,145	-79,8	     821,219	-81,5
     40,9721	     828,363	-78,8	     834,594	-78,2
     40,9751	     832,135	-77,9	     829,489	-80,3
      40,978	      827,41	-79,4	     836,198	-77,9
     40,9809	      828,62	-78,4	     831,297	-80,1
     40,9839	     836,867	-77,9	     842,424	-79,2
     40,9868	     834,559	-77,8	     829,113	-77,5
     40,9897	     836,055	-77,1	     833,844	-78,9
     40,9927	     839,622	-77,1	     846,521	-80,2
     40,9956	     841,013	-75,9	     835,602	-78,4
     40,9985	     842,928	-77,1	     840,333	-77,6
     41,0015	     847,676	-80,6	     837,046	-78,8
     41,0044	     844,505	-79,2	     848,832	-77,7
     41,0073	     851,399	-77,6	     838,874	-77,6
     41,0103	     838,157	-80,0	     839,644	-76,9
     41,0132	     845,607	-80,1	     848,976	-80,3
     41,0161	     857,743	-77,4	     838,062	-76,4
     41,0191	     854,539	-77,9	     855,865	-79,6
      41,022	     847,025	-79,7	     849,482	-79,9
     41,0249	     852,814	-79,1	     850,066	-81,5
     41,0279	     867,505	-78,9	     860,777	-79,6
     41,0308	     848,863	-77,7	     861,575	-79,9
     41,0337	     865,273	-78,3	     867,679	-79,6
     41,0367	     855,734	-80,2	     862,511	-78,7
     41,0396	     868,911	-80,4	     857,779	-79,2
     41,0425	     855,504	-79,1	     867,398	-77,6
     41,0455	     873,052	-80,1	     859,521	-79,8
     41,0484	     855,577	-82,0	     858,996	-80,0
     41,0513	     867,062	-77,9	     864,145	-78,9
     41,0543	     878,032	-77,2	     870,774	-77,7
     41,0572	      850,53	-76,4	     875,114	-80,7
     41,0601	     876,359	-77,9	     874,233	-80,2
      41,063	     874,215	-77,2	     878,656	-77,9
      41,066	     878,563	-76,0	     867,846	-76,3
     41,0689	      878,66	-78,3	     880,904	-81,0
     41,0718	     868,295	-78,8	     877,697	-78,0
     41,0748	     889,495	-78,8	     882,081	-77,5
     41,0777	     874,978	-78,0	     882,987	-76,4
     41,0806	     881,221	-77,5	     880,827	-78,7
     41,0836	     878,986	-77,9	     879,827	-78,7
     41,0865	     894,291	-78,3	     888,211	-78,1
     41,0894	     873,534	-76,7	     876,833	-78,3
     41,0924	     890,609	-77,6	     894,138	-79,0
     41,0953	     891,111	-78,6	     893,823	-78,3
     41,0982	     893,987	-78,6	     896,468	-77,6
     41,1012	     887,443	-78,2	     883,323	-77,1
     41,1041	     896,925	-77,4	     893,109	-77,9
      41,107	     900,281	-81,3	     900,612	-79,5
       41,11	     891,936	-78,7	      901,28	-79,3
     41,1129	      899,97	-77,6	     896,851	-77,4
     41,1158	     893,403	-76,1	     901,338	-80,3
     41,1188	     908,964	-76,1	     912,669	-79,0
     41,1217	     905,977	-78,6	     900,532	-77,2
     41,1246	     901,447	-76,0	     897,696	-76,6
     41,1276	      908,91	-77,0	     902,065	-77,6
     41,1305	     906,551	-77,4	     904,444	-77,7
     41,1334	     906,037	-78,2	     912,835	-78,0
     41,1364	     915,551	-78,4	     914,093	-76,0
     41,1393	     903,695	-76,8	     912,474	-77,8
     41,1422	     910,407	-75,2	     913,693	-78,7
     41,1452	     914,874	-76,0	     917,424	-77,9
     41,1481	     918,239	-77,7	     927,515	-76,2
      41,151	     914,992	-76,7	     904,185	-76,6
      41,154	     924,773	-76,3	     927,592	-77,4
     41,1569	     925,331	-77,9	     913,169	-78,8
     41,1598	     921,986	-77,3	     923,951	-75,7
     41,1628	     922,712	-78,0	     920,823	-78,3
     41,1657	     929,128	-76,5	     933,964	-78,7
     41,1686	     921,039	-74,8	     926,278	-79,7
     41,1716	     930,244	-76,7	     939,251	-77,8
     41,1745	     938,534	-77,6	     937,005	-77,2
     41,1774	     937,249	-77,0	     932,735	-76,8
     41,1804	     925,118	-76,9	     940,323	-77,4
     41,1833	      932,85	-75,6	     942,929	-78,6
     41,1862	     946,597	-75,6	     938,793	-75,2
     41,1891	     936,116	-76,5	     941,193	-76,0
     41,1921	     940,722	-75,6	      951,05	-77,2
      41,195	     948,923	-74,6	     947,088	-78,2
     41,1979	     941,835	-76,5	     951,721	-76,5
     41,2009	     956,035	-78,2	     944,188	-76,0
     41,2038	     945,665	-79,5	     953,714	-76,0
     41,2067	     949,547	-77,4	     947,449	-76,6
     41,2097	     950,355	-76,6	     956,026	-76,1
     41,2126	     955,286	-78,3	     960,954	-76,7
     41,2155	     962,249	-76,2	     958,008	-76,4
     41,2185	     954,549	-77,4	     966,779	-75,4
     41,2214	     963,279	-78,2	     971,419	-77,1
     41,2243	     961,332	-75,2	     968,915	-76,6
     41,2273	     966,433	-77,1	     964,808	-75,1
     41,2302	     969,089	-77,9	     961,434	-74,6
     41,2331	     958,974	-75,7	     958,681	-77,0
     41,2361	     967,373	-75,9	     975,566	-77,5
      41,239	     971,117	-74,7	     972,423	-77,2
     41,2419	     971,131	-75,1	     982,452	-76,4
     41,2449	     988,489	-78,0	      976,88	-75,3
     41,2478	     968,971	-78,5	     979,539	-75,3
     41,2507	      974,75	-75,9	     983,694	-76,5
     41,2537	     987,805	-75,9	     989,547	-75,6
     41,2566	      967,93	-74,0	     979,418	-75,4
     41,2595	     995,599	-75,3	     982,963	-77,2
     41,2625	     989,859	-78,7	     994,449	-76,3
     41,2654	     988,444	-76,7	     985,303	-76,1
     41,2683	     994,742	-76,1	     1002,34	-76,2
     41,2713	     984,285	-75,0	     1000,84	-74,9
     41,2742	     1000,37	-74,9	     990,551	-74,4
     41,2771	     1003,38	-77,5	     988,921	-76,8
     41,2801	     999,082	-76,2	     1009,84	-77,5
      41,283	     1003,52	-76,5	     1001,27	-76,7
     41,2859	        1004	-76,3	     1011,91	-76,0
     41,2889	     1001,18	-74,5	     997,612	-74,1
     41,2918	     1003,78	-77,7	     1009,32	-77,3
     41,2947	     1013,58	-78,1	     1020,39	-76,5
     41,2977	     1005,66	-76,3	      1010,6	-78,3
     41,3006	     1013,63	-75,1	     1023,72	-77,0
     41,3035	     1012,44	-75,8	     1019,15	-74,6
     41,3064	     1026,67	-77,4	     1018,41	-77,3
     41,3094	     1020,39	-76,0	     1026,58	-76,6
     41,3123	     1022,36	-76,5	     1021,64	-77,8
     41,3153	     1019,27	-73,4	     1029,96	-74,9
     41,3182	     1020,31	-74,7	     1024,57	-75,9
     41,3211	     1031,52	-75,1	     1028,94	-75,4
      41,324	     1042,64	-78,4	     1037,99	-74,2
      41,327	     1027,63	-77,0	      1030,8	-76,7
     41,3299	     1036,35	-74,9	     1033,29	-77,5
     41,3328	     1032,69	-74,7	     1047,45	-75,2
     41,3358	     1034,06	-74,7	     1037,32	-75,0
     41,3387	     1036,19	-74,8	     1041,05	-74,9
     41,3416	     1040,73	-77,3	     1035,59	-74,2
     41,3446	     1040,68	-76,6	     1050,66	-75,8
     41,3475	      1052,4	-75,4	     1042,18	-74,4
     41,3504	     1049,15	-75,0	     1052,42	-76,6
     41,3534	     1045,49	-76,2	     1048,93	-75,9
     41,3563	     1071,46	-76,6	     1056,05	-78,2
     41,3592	     1051,85	-77,7	     1057,31	-77,1
     41,3622	      1058,1	-76,5	     1059,12	-75,4
     41,3651	     1047,12	-75,1	     1061,05	-75,3
      41,368	     1067,75	-75,5	      1071,8	-76,6
      41,371	     1065,65	-74,2	     1073,49	-75,4
     41,3739	     1074,62	-74,0	     1077,22	-77,1
     41,3768	     1068,85	-76,5	     1064,19	-74,9
     41,3798	     1067,95	-75,2	     1064,88	-77,3
     41,3827	     1070,64	-75,4	     1083,65	-75,7
     41,3856	     1068,31	-73,7	     1079,58	-76,1
     41,3886	     1076,23	-74,0	     1083,71	-75,8
     41,3915	     1079,15	-75,1	     1081,46	-76,3
     41,3944	     1067,61	-74,8	     1081,22	-75,1
     41,3974	     1087,87	-76,1	     1098,81	-75,9
     41,4003	     1090,58	-75,1	      1085,5	-73,8
     41,4032	      1092,9	-75,1	     1090,15	-75,4
     41,4062	     1098,65	-75,7	     1096,17	-74,4
     41,4091	     1094,39	-73,6	     1086,26	-74,1
      41,412	     1095,37	-76,0	     1103,36	-76,0
      41,415	     1104,16	-75,1	     1090,28	-75,4
     41,4179	     1105,77	-76,0	     1106,04	-76,6
     41,4208	     1095,53	-73,2	     1116,09	-74,6
     41,4238	     1109,99	-73,9	     1103,53	-72,7
     41,4267	     1112,01	-74,3	      1099,4	-73,9
     41,4296	     1103,54	-72,5	     1120,78	-75,8
     41,4326	     1113,39	-72,8	     1122,39	-77,5
     41,4355	     1118,17	-74,3	     1131,07	-76,9
     41,4384	     1123,44	-75,8	     1126,23	-75,4
     41,4413	     1124,09	-75,6	     1124,18	-73,0
     41,4443	     1109,35	-73,8	     1114,12	-73,8
     41,4472	     1121,52	-74,0	     1129,88	-75,4
     41,4501	      1128,3	-73,9	     1147,48	-76,0
     41,4531	     1133,63	-76,4	     1133,49	-74,8
      41,456	     1132,15	-76,7	     1134,07	-74,0
     41,4589	     1125,85	-76,2	     1145,48	-72,2
     41,4619	     1135,23	-74,0	     1142,47	-73,7
     41,4648	     1143,08	-71,6	     1130,98	-74,1
     41,4677	     1145,73	-73,8	     1143,13	-75,0
     41,4707	     1150,32	-75,7	     1150,56	-75,3
     41,4736	     1143,92	-75,6	     1148,75	-74,4
     41,4765	     1146,04	-74,3	     1155,93	-75,3
     41,4795	      1155,1	-73,2	     1169,54	-74,7
     41,4824	     1155,32	-72,9	     1166,06	-72,8
     41,4853	     1161,45	-73,6	     1162,61	-74,5
     41,4883	     1150,85	-73,0	     1175,12	-73,8
     41,4912	     1157,73	-70,9	     1175,46	-74,6
     41,4941	     1164,53	-74,3	     1182,27	-75,8
     41,4971	     1168,43	-74,7	      1184,1	-73,2
        41,5	     1174,36	-75,8	     1175,34	-72,7
     41,5029	     1176,22	-72,6	      1169,2	-72,8
     41,5059	     1183,87	-72,1	     1189,95	-73,6
     41,5088	     1178,69	-72,8	     1181,23	-73,9
     41,5117	     1180,66	-73,4	     1190,98	-75,8
     41,5147	     1182,45	-72,8	     1201,64	-74,0
     41,5176	     1187,53	-74,8	     1193,92	-72,7
     41,5205	     1182,93	-73,8	      1195,4	-72,5
     41,5235	     1200,61	-73,6	     1204,87	-72,8
     41,5264	     1199,39	-72,2	     1207,23	-71,4
     41,5293	      1204,2	-72,7	     1217,62	-75,2
     41,5323	     1205,89	-72,0	     1211,96	-73,8
     41,5352	     1199,37	-72,4	     1211,37	-75,2
     41,5381	     1202,38	-73,6	      1217,3	-75,0
     41,5411	     1207,09	-75,3	     1210,83	-73,9
      41,544	     1212,42	-74,8	     1210,95	-72,9
     41,5469	     1209,66	-74,0	     1223,08	-73,0
     41,5499	     1216,57	-71,4	     1237,33	-72,3
     41,5528	     1221,49	-71,4	     1231,55	-73,0
     41,5557	     1234,18	-72,2	      1229,8	-73,7
     41,5587	     1223,71	-70,7	     1240,66	-73,3
     41,5616	     1227,28	-73,6	     1231,64	-73,5
     41,5645	     1237,95	-73,6	     1234,15	-74,5
     41,5674	     1242,17	-74,0	     1253,24	-73,7
     41,5704	     1241,81	-74,1	      1244,3	-72,1
     41,5733	     1241,67	-73,2	     1249,78	-71,6
     41,5762	     1245,77	-70,2	      1251,7	-73,2
     41,5792	     1241,59	-70,7	     1269,39	-73,3
     41,5821	     1263,22	-72,1	     1269,41	-72,7
      41,585	     1258,68	-75,0	     1261,28	-72,4
      41,588	     1250,16	-73,2	     1264,61	-74,4
     41,5909	     1263,77	-73,0	      1271,2	-72,2
     41,5938	     1275,05	-73,1	     1274,98	-72,0
     41,5968	     1275,83	-73,5	     1284,63	-70,6
     41,5997	     1270,41	-71,0	     1281,12	-71,4
     41,6026	     1275,78	-70,2	     1275,77	-73,0
     41,6056	     1282,74	-71,8	     1294,66	-74,2
     41,6085	     1276,17	-73,8	     1298,27	-73,1
     41,6114	     1282,93	-72,2	     1291,43	-71,4
     41,6144	     1290,56	-71,6	     1287,64	-72,9
     41,6173	     1291,47	-71,8	     1301,82	-71,4
     41,6202	     1302,58	-73,1	     1309,51	-71,6
     41,6232	     1304,36	-72,7	     1298,17	-71,2
     41,6261	     1301,88	-70,5	     1309,02	-71,4
      41,629	     1302,52	-69,6	     1317,15	-71,6
      41,632	     1319,17	-71,2	     1313,39	-73,5
     41,6349	     1309,67	-70,7	        1320	-72,4
     41,6378	     1311,56	-69,2	     1317,72	-73,8
     41,6408	     1337,52	-71,5	     1330,74	-73,1
     41,6437	     1330,59	-72,0	     1334,73	-70,8
     41,6466	     1327,71	-72,9	     1335,98	-69,7
     41,6496	     1327,57	-70,0	     1337,31	-69,6
     41,6525	      1330,2	-69,4	     1338,97	-71,5
     41,6554	     1343,94	-71,6	     1349,72	-69,4
     41,6584	     1341,28	-70,7	     1359,08	-72,2
     41,6613	     1340,79	-69,8	     1348,16	-72,0
     41,6642	     1349,69	-69,9	     1359,28	-73,3
     41,6672	     1362,28	-70,7	     1369,66	-72,3
     41,6701	     1360,85	-70,6	     1363,27	-71,5
      41,673	     1362,69	-72,3	     1372,14	-69,0
      41,676	     1356,38	-71,6	     1371,63	-70,5
     41,6789	     1361,45	-71,1	     1375,83	-71,4
     41,6818	     1374,12	-72,5	     1385,73	-69,3
     41,6847	     1374,75	-71,9	      1391,4	-69,7
     41,6877	     1374,49	-68,0	     1395,11	-71,7
     41,6906	      1377,1	-69,0	     1397,56	-73,0
     41,6936	     1379,52	-69,2	     1397,44	-70,8
     41,6965	     1395,19	-69,5	     1401,77	-71,7
     41,6994	     1386,12	-67,9	     1404,38	-72,1
     41,7023	     1400,68	-70,1	      1407,3	-69,7
     41,7053	     1399,39	-69,8	     1404,88	-69,0
     41,7082	     1405,66	-71,8	     1415,98	-68,3
     41,7111	     1406,71	-70,9	     1415,74	-70,9
     41,7141	     1408,77	-69,5	      1428,9	-70,8
      41,717	     1431,37	-71,7	     1419,67	-69,1
     41,7199	     1422,32	-70,1	     1430,32	-71,0
     41,7229	     1426,61	-68,1	      1434,2	-70,2
     41,7258	     1431,31	-67,8	     1427,93	-70,5
     41,7287	     1429,91	-68,7	     1451,05	-70,6
     41,7317	     1429,67	-68,3	     1454,55	-69,4
     41,7346	     1431,56	-67,9	     1455,51	-72,3
     41,7375	     1463,84	-69,7	     1467,17	-69,3
     41,7405	     1456,63	-70,5	     1464,05	-69,5
     41,7434	     1445,07	-68,4	      1453,3	-67,6
     41,7463	      1449,6	-69,6	     1469,08	-68,9
     41,7493	     1460,05	-69,5	     1477,64	-67,2
     41,7522	     1461,88	-70,8	     1482,62	-68,3
     41,7551	     1466,44	-68,4	     1476,79	-67,6
     41,7581	     1474,63	-69,0	     1496,64	-71,2
      41,761	     1471,48	-70,9	     1495,45	-68,3
     41,7639	     1487,77	-68,3	     1492,13	-69,8
     41,7669	     1489,93	-66,6	     1493,44	-70,5
     41,7698	     1489,87	-67,7	      1508,5	-69,5
     41,7727	     1494,69	-67,2	     1511,26	-68,3
     41,7757	     1499,79	-66,6	     1516,74	-69,4
     41,7786	     1505,19	-67,6	     1522,57	-69,6
     41,7815	     1514,05	-68,7	     1528,46	-68,1
     41,7845	     1503,76	-67,9	     1528,28	-66,8
     41,7874	      1513,2	-67,1	     1523,98	-67,9
     41,7903	     1524,78	-69,5	     1542,35	-66,8
     41,7933	     1529,53	-70,3	     1553,34	-67,6
     41,7962	     1533,75	-68,3	     1547,18	-68,5
     41,7991	        1541	-68,8	     1547,61	-68,8
     41,8021	      1544,3	-70,0	     1551,75	-69,1
      41,805	     1557,64	-68,0	     1556,49	-68,6
     41,8079	     1556,18	-67,3	     1569,51	-68,4
     41,8109	      1563,6	-68,2	     1576,55	-70,0
     41,8138	     1557,23	-68,7	     1581,91	-69,2
     41,8167	      1571,4	-65,9	     1586,17	-69,2
     41,8196	     1573,53	-65,4	      1588,2	-69,8
     41,8226	      1576,2	-66,4	     1596,83	-66,2
     41,8255	     1575,84	-65,3	     1589,89	-64,8
     41,8284	     1581,02	-66,3	     1605,03	-67,1
     41,8314	     1598,77	-67,8	     1615,34	-67,2
     41,8343	     1608,03	-66,7	     1616,08	-65,9
     41,8372	     1607,65	-65,2	     1616,42	-66,5
     41,8402	      1595,9	-66,5	     1620,56	-66,5
     41,8431	     1600,68	-68,5	     1624,09	-64,8
      41,846	     1616,02	-67,4	     1626,25	-65,7
      41,849	     1630,27	-66,6	     1639,16	-67,9
     41,8519	     1630,46	-68,3	     1645,68	-66,7
     41,8548	     1636,17	-67,1	     1644,37	-64,2
     41,8578	      1645,5	-65,5	     1650,65	-67,4
     41,8607	     1643,09	-66,0	     1659,93	-68,2
     41,8636	     1639,53	-67,5	     1662,49	-66,0
     41,8666	     1648,91	-65,6	     1672,33	-67,0
     41,8695	        1655	-64,8	     1680,58	-67,6
     41,8724	     1652,88	-66,0	     1689,23	-66,0
     41,8754	     1661,11	-65,9	     1689,49	-65,2
     41,8783	     1678,02	-64,3	     1696,42	-67,0
     41,8812	     1683,34	-63,9	     1707,64	-65,5
     41,8842	     1689,68	-64,4	     1694,33	-66,0
     41,8871	     1689,41	-63,0	     1708,39	-67,5
       41,89	     1698,06	-64,5	     1719,67	-65,3
      41,893	     1710,49	-64,8	     1722,18	-64,4
     41,8959	      1706,2	-64,0	     1727,99	-64,1
     41,8988	      1712,9	-63,1	     1734,45	-65,1
     41,9018	     1710,61	-63,4	     1736,39	-64,3
     41,9047	     1723,02	-62,7	     1734,79	-62,9
     41,9076	     1730,73	-65,0	     1734,28	-65,0
     41,9106	     1741,43	-64,9	     1752,07	-64,0
     41,9135	     1735,12	-64,9	     1759,64	-64,2
     41,9164	     1744,18	-62,4	     1756,07	-64,4
     41,9194	     1750,85	-63,8	     1764,24	-64,7
     41,9223	     1758,09	-63,2	     1778,69	-62,9
     41,9252	     1768,47	-65,5	     1784,29	-63,7
     41,9282	     1772,79	-64,9	     1796,46	-66,4
     41,9311	     1786,98	-64,7	     1797,73	-65,1
      41,934	      1784,1	-63,0	     1806,12	-64,4
      41,937	     1795,87	-64,0	     1806,85	-64,2
     41,9399	     1800,67	-67,1	     1809,42	-63,5
     41,9428	     1806,09	-65,0	     1820,63	-64,3
     41,9457	     1805,83	-63,9	     1832,15	-64,1
     41,9487	     1819,49	-64,0	     1831,85	-64,1
     41,9516	     1819,23	-64,5	     1838,55	-64,5
     41,9545	     1828,09	-64,1	     1855,93	-63,9
     41,9575	     1836,05	-64,5	     1873,24	-64,0
     41,9604	     1854,84	-62,5	     1863,97	-64,0
     41,9633	     1846,93	-61,6	     1874,17	-64,3
     41,9663	     1855,63	-62,8	      1874,3	-63,2
     41,9692	      1861,5	-62,7	     1877,22	-63,1
     41,9721	     1875,84	-62,7	     1891,57	-64,4
     41,9751	     1883,07	-60,7	     1904,36	-62,9
      41,978	     1886,99	-63,1	     1904,84	-63,6
     41,9809	     1882,29	-61,4	     1924,77	-62,3
     41,9839	     1895,23	-63,8	     1929,22	-62,0
     41,9868	     1909,02	-61,9	     1925,62	-61,2
     41,9897	     1907,36	-60,2	     1933,67	-62,5
     41,9927	      1924,4	-60,7	     1947,67	-62,5
     41,9956	     1918,12	-62,9	      1953,3	-60,4
     41,9985	     1926,37	-61,4	     1979,19	-63,6
     42,0015	     1940,81	-61,1	     1983,14	-61,8
     42,0044	     1945,95	-61,2	     1976,24	-62,1
     42,0073	     1950,58	-60,3	     1970,99	-60,1
     42,0103	     1967,26	-58,9	     1990,93	-60,2
     42,0132	     1969,73	-60,7	     1998,78	-59,5
     42,0161	     1970,22	-58,8	     2002,47	-61,7
     42,0191	     1984,16	-60,1	     2008,29	-60,5
      42,022	     1980,03	-61,3	     2007,71	-59,3
     42,0249	     1990,27	-57,8	     2023,96	-60,1
     42,0279	     1999,22	-59,1	     2030,84	-60,2
     42,0308	     2009,93	-59,9	     2044,22	-60,3
     42,0337	     2021,29	-58,6	      2056,1	-59,4
     42,0367	      2032,5	-60,9	     2065,36	-58,8
     42,0396	     2033,17	-59,0	     2071,24	-58,7
     42,0425	     2036,66	-57,6	     2083,09	-58,3
     42,0455	     2050,44	-59,7	     2087,57	-58,2
     42,0484	     2056,36	-59,6	     2094,32	-58,9
     42,0513	     2059,69	-57,4	     2095,32	-60,1
     42,0543	     2071,59	-58,8	     2101,75	-58,6
     42,0572	     2083,47	-58,8	     2120,63	-59,9
     42,0601	     2104,39	-59,3	     2137,18	-59,0
      42,063	      2104,9	-57,6	      2148,2	-57,8
      42,066	     2110,26	-58,0	     2148,54	-58,8
     42,0689	     2107,49	-57,6	     2157,99	-58,4
     42,0718	     2124,53	-60,6	     2163,33	-58,0
     42,0748	     2135,68	-56,6	     2168,52	-56,9
     42,0777	     2146,14	-57,2	      2177,6	-58,1
     42,0806	     2155,26	-58,6	     2187,66	-56,6
     42,0836	     2148,08	-57,3	     2190,39	-58,5
     42,0865	     2170,68	-58,2	     2201,78	-57,2
     42,0894	      2181,1	-57,2	     2215,58	-57,1
     42,0924	     2181,04	-56,1	     2228,72	-58,3
     42,0953	      2192,8	-58,1	     2222,86	-56,8
     42,0982	      2202,3	-58,2	     2236,23	-57,9
     42,1012	     2210,74	-55,3	     2254,45	-57,7
     42,1041	     2223,48	-57,5	     2268,79	-56,3
      42,107	      2228,1	-57,3	     2280,18	-57,6
       42,11	     2241,25	-56,8	     2277,38	-56,7
     42,1129	     2255,58	-55,8	      2279,1	-56,5
     42,1158	     2265,12	-56,3	     2300,01	-56,9
     42,1188	      2278,4	-56,5	     2310,73	-56,8
     42,1217	     2286,81	-56,2	     2313,81	-56,0
     42,1246	     2274,46	-55,1	     2320,93	-55,8
     42,1276	     2303,91	-55,5	     2319,81	-53,8
     42,1305	     2312,74	-56,0	      2344,6	-54,6
     42,1334	     2317,45	-53,0	     2366,42	-56,9
     42,1364	     2326,65	-54,3	     2378,53	-54,6
     42,1393	     2339,56	-54,9	     2377,96	-54,2
     42,1422	     2336,04	-53,0	      2390,4	-53,6
     42,1452	     2353,03	-53,5	     2389,74	-52,7
     42,1481	     2358,42	-50,8	     2414,26	-55,1
      42,151	     2375,64	-53,2	     2426,51	-53,7
      42,154	     2396,65	-53,8	     2437,42	-52,5
     42,1569	      2406,7	-51,6	     2453,05	-51,9
     42,1598	     2415,69	-51,9	     2453,09	-52,0
     42,1628	     2420,73	-52,7	     2456,71	-51,6
     42,1657	     2429,15	-50,6	     2474,65	-51,5
     42,1686	     2445,64	-52,2	     2479,86	-50,8
     42,1716	     2446,08	-51,8	     2503,85	-51,1
     42,1745	     2465,44	-50,2	     2513,06	-51,0
     42,1774	      2481,9	-50,7	     2517,97	-50,9
     42,1804	     2478,41	-50,1	        2527	-52,5
     42,1833	     2498,39	-51,7	     2546,89	-49,2
     42,1862	     2505,39	-51,4	     2556,76	-50,2
     42,1891	     2512,14	-49,7	     2577,56	-51,2
     42,1921	      2518,7	-51,5	      2581,1	-50,2
      42,195	     2527,67	-50,3	        2601	-52,1
     42,1979	     2547,48	-51,5	     2618,34	-49,1
     42,2009	     2561,19	-51,1	     2623,64	-49,7
     42,2038	     2560,95	-48,8	     2632,69	-51,9
     42,2067	     2583,47	-50,3	     2639,68	-49,0
     42,2097	     2590,38	-48,2	      2647,4	-50,0
     42,2126	     2607,19	-49,0	     2647,09	-47,7
     42,2155	      2624,8	-50,1	     2672,58	-49,3
     42,2185	     2634,86	-47,9	     2690,67	-49,9
     42,2214	     2654,44	-47,9	     2703,48	-46,8
     42,2243	     2646,71	-45,6	     2712,21	-47,6
     42,2273	     2666,89	-46,8	     2720,08	-47,0
     42,2302	     2675,32	-47,2	      2738,9	-46,2
     42,2331	     2679,54	-45,5	     2752,71	-47,0
     42,2361	     2698,71	-47,5	     2754,99	-45,1
      42,239	      2716,6	-45,4	     2776,86	-45,8
     42,2419	     2722,65	-44,8	     2790,91	-46,4
     42,2449	     2739,94	-45,6	     2797,84	-44,7
     42,2478	     2745,26	-46,1	      2812,5	-46,1
     42,2507	     2753,63	-47,1	     2828,35	-45,1
     42,2537	     2766,46	-45,8	     2850,31	-47,0
     42,2566	     2782,41	-44,9	     2864,68	-46,3
     42,2595	     2798,31	-46,2	     2871,83	-45,1
     42,2625	      2812,3	-44,7	     2879,38	-46,1
     42,2654	     2821,08	-43,5	     2893,55	-42,4
     42,2683	     2837,36	-46,4	     2905,95	-44,1
     42,2713	     2844,76	-44,0	     2923,77	-45,3
     42,2742	     2861,09	-43,9	     2926,66	-42,5
     42,2771	     2874,14	-44,1	     2934,14	-42,5
     42,2801	     2878,13	-41,8	     2941,06	-41,2
      42,283	     2891,55	-42,5	     2959,89	-42,0
     42,2859	     2919,21	-41,7	      2986,5	-41,1
     42,2889	      2927,2	-40,6	     2991,27	-40,2
     42,2918	     2935,73	-41,8	     3017,33	-41,8
     42,2947	     2943,81	-39,6	     3021,74	-40,7
     42,2977	     2955,07	-42,5	     3033,87	-39,9
     42,3006	     2967,62	-41,6	     3049,96	-41,0
     42,3035	     2990,57	-39,9	     3069,81	-41,4
     42,3064	     3002,31	-41,1	     3077,78	-40,3
     42,3094	     3025,56	-39,8	        3099	-39,6
     42,3123	     3036,94	-41,6	     3110,39	-41,1
     42,3153	     3043,64	-39,4	     3129,67	-38,7
     42,3182	     3050,11	-40,5	     3141,28	-37,7
     42,3211	     3062,63	-37,4	     3153,17	-38,8
      42,324	     3082,47	-37,2	     3161,15	-37,0
      42,327	     3094,14	-37,3	     3177,65	-37,8
     42,3299	     3110,44	-36,3	     3188,81	-36,1
     42,3328	     3129,57	-38,3	     3212,14	-36,8
     42,3358	     3136,19	-36,2	     3221,13	-37,5
     42,3387	     3154,71	-36,4	     3238,99	-37,8
     42,3416	     3166,18	-35,7	     3254,36	-35,7
     42,3446	     3178,48	-36,5	      3254,3	-34,6
     42,3475	     3192,69	-36,4	      3269,9	-36,8
     42,3504	     3206,31	-35,3	     3293,06	-35,7
     42,3534	     3224,42	-35,7	     3302,91	-34,6
     42,3563	     3229,64	-34,2	     3318,88	-32,5
     42,3592	     3236,95	-33,5	     3329,53	-32,2
     42,3622	     3262,53	-35,2	     3347,96	-33,5
     42,3651	     3272,07	-31,3	     3353,87	-30,8
      42,368	     3283,86	-31,8	      3367,3	-33,0
      42,371	     3287,19	-32,0	     3383,56	-30,3
     42,3739	     3305,45	-33,8	     3401,25	-31,5
     42,3768	     3321,65	-31,7	     3418,02	-31,7
     42,3798	     3339,23	-32,2	     3428,67	-31,0
     42,3827	     3353,64	-32,4	     3443,94	-30,3
     42,3856	     3369,21	-29,7	     3451,35	-30,3
     42,3886	     3385,51	-32,4	     3461,22	-30,2
     42,3915	     3388,55	-30,2	     3466,45	-27,2
     42,3944	      3401,8	-29,6	     3485,64	-27,9
     42,3974	     3416,79	-27,6	     3498,49	-28,4
     42,4003	     3434,08	-27,0	     3509,91	-26,7
     42,4032	     3447,41	-28,2	     3537,76	-27,5
     42,4062	     3461,81	-27,2	     3545,26	-28,8
     42,4091	     3471,31	-28,2	     3563,76	-27,5
      42,412	     3477,15	-27,1	     3572,14	-26,9
      42,415	     3496,69	-26,4	     3582,64	-27,0
     42,4179	     3503,06	-26,9	     3587,76	-25,0
     42,4208	     3528,61	-25,2	     3616,87	-25,1
     42,4238	     3527,58	-24,7	     3625,57	-24,9
     42,4267	     3530,18	-24,3	     3634,84	-22,3
     42,4296	     3557,15	-25,2	      3651,1	-22,6
     42,4326	     3564,81	-22,3	     3656,77	-23,3
     42,4355	     3583,93	-23,5	     3667,84	-21,9
     42,4384	     3592,19	-23,2	      3676,5	-22,0
     42,4413	     3611,22	-21,6	     3690,27	-24,2
     42,4443	     3627,18	-23,4	     3692,72	-21,4
     42,4472	     3637,73	-22,3	     3706,62	-22,1
     42,4501	     3652,63	-21,2	     3724,06	-22,1
     42,4531	     3656,94	-19,8	     3725,85	-18,6
      42,456	     3670,05	-21,0	     3731,32	-19,3
     42,4589	     3676,82	-18,4	     3742,52	-19,6
     42,4619	     3688,63	-20,1	     3756,36	-18,5
     42,4648	     3695,96	-19,4	     3757,77	-18,1
     42,4677	     3706,48	-17,3	     3768,13	-20,1
     42,4707	     3724,13	-18,8	     3775,85	-17,4
     42,4736	     3735,21	-18,2	     3793,26	-16,5
     42,4765	     3748,68	-18,5	     3802,52	-16,8
     42,4795	     3752,57	-16,3	     3811,55	-15,3
     42,4824	     3771,56	-17,2	     3823,33	-15,8
     42,4853	      3778,2	-14,1	      3830,3	-14,0
     42,4883	     3779,65	-16,0	     3845,59	-16,3
     42,4912	     3788,64	-14,2	     3849,75	-13,0
     42,4941	     3789,65	-14,1	     3855,94	-16,8
     42,4971	      3794,4	-14,6	     3852,54	-13,9
        42,5	     3815,32	-15,8	     3858,19	-14,3
     42,5029	     3825,12	-12,5	     3866,58	-11,0
     42,5059	     3840,43	-13,4	        3873	-11,9
     42,5088	     3846,66	-12,2	     3881,02	-10,4
     42,5117	     3841,69	-10,7	     3894,22	-12,0
     42,5147	      3852,3	-11,4	     3901,47	-9,8
     42,5176	      3868,1	-8,9	     3902,48	-10,0
     42,5205	     3871,53	-11,7	     3896,92	-11,7
     42,5235	     3874,04	-10,1	     3900,77	-8,8
     42,5264	      3872,3	-11,5	     3904,96	-9,9
     42,5293	      3872,2	-11,1	     3908,89	-7,2
     42,5323	     3880,43	-8,2	     3921,48	-8,0
     42,5352	     3884,66	-7,4	     3928,81	-5,6
     42,5381	     3890,08	-7,8	      3932,7	-6,8
     42,5411	      3889,1	-7,9	     3923,79	-7,1
      42,544	     3893,59	-5,8	     3931,02	-7,5
     42,5469	     3904,24	-8,3	     3940,46	-7,4
     42,5499	     3902,84	-5,8	     3933,61	-6,1
     42,5528	     3905,44	-4,9	     3934,12	-5,3
     42,5557	     3908,46	-4,6	     3944,21	-3,8
     42,5587	     3923,34	-3,1	     3947,93	-2,9
     42,5616	     3919,41	-2,9	     3942,41	-1,2
     42,5645	     3934,02	-5,6	     3940,57	-3,5
     42,5674	     3927,27	-3,6	     3939,01	-3,5
     42,5704	     3918,09	-4,1	     3946,32	-4,2
     42,5733	     3926,71	-2,2	     3931,75	-0,7
     42,5762	     3943,74	-1,1	     3940,35	-2,3
     42,5792	     3944,68	-1,4	     3946,86	 1,0
     42,5821	     3944,27	-0,1	     3953,65	 1,3
      42,585	     3946,53	-0,5	     3948,42	 0,6
      42,588	     3947,32	-2,1	     3956,85	 1,5
     42,5909	     3951,84	-1,0	     3949,56	-0,2
     42,5938	     3942,95	 0,9	     3958,71	 0,3
     42,5968	     3945,97	 0,6	      3946,8	 2,0
     42,5997	     3948,39	 3,8	     3941,24	 3,2
     42,6026	     3947,42	 2,7	     3938,99	 3,2
     42,6056	     3940,54	 3,0	     3937,07	 3,7
     42,6085	     3947,71	 2,3	     3938,85	 3,4
     42,6114	     3939,53	 3,8	     3933,84	 4,4
     42,6144	     3944,57	 2,7	     3929,38	 2,6
     42,6173	     3940,39	 5,9	      3923,9	 4,5
     42,6202	     3941,12	 5,6	     3920,49	 5,4
     42,6232	     3937,14	 7,2	     3924,57	 6,3
     42,6261	     3942,25	 6,4	     3922,68	 6,4
      42,629	     3939,93	 6,3	     3925,81	 8,6
      42,632	     3932,68	 3,9	     3923,66	 5,0
     42,6349	     3918,54	 8,1	     3916,34	 7,3
     42,6378	     3927,77	 8,0	     3901,57	 5,6
     42,6408	     3920,59	 8,9	     3901,29	 9,4
     42,6437	     3922,06	 8,6	     3907,63	 9,3
     42,6466	     3919,53	 9,6	     3895,72	11,4
     42,6496	     3918,64	 7,4	     3901,67	10,1
     42,6525	     3913,74	 9,3	     3877,09	10,8
     42,6554	     3901,13	 8,4	     3873,37	 8,7
     42,6584	     3896,97	12,0	      3865,2	 9,2
     42,6613	     3894,25	10,7	        3878	10,9
     42,6642	     3879,09	11,5	     3864,36	13,8
     42,6672	     3871,33	11,7	     3860,06	10,6
     42,6701	      3858,3	11,9	     3861,64	13,5
      42,673	     3864,91	12,2	     3845,16	12,7
      42,676	     3862,91	13,3	     3838,17	12,5
     42,6789	     3852,44	13,9	     3839,53	12,7
     42,6818	     3854,79	14,6	     3821,25	15,5
     42,6847	     3850,56	12,0	     3823,87	13,9
     42,6877	      3840,1	15,2	        3822	15,8
     42,6906	      3831,7	14,2	     3810,13	14,9
     42,6936	     3830,78	17,2	     3809,84	15,0
     42,6965	     3830,43	16,9	     3803,25	15,2
     42,6994	     3820,82	17,8	     3789,42	18,2
     42,7023	     3807,51	15,7	     3785,35	17,5
     42,7053	     3789,02	16,9	     3777,57	17,4
     42,7082	     3786,61	15,7	     3762,67	14,6
     42,7111	     3783,16	18,5	     3749,87	18,1
     42,7141	     3780,23	18,7	     3747,19	16,9
      42,717	     3760,83	18,7	     3739,07	17,8
     42,7199	     3754,38	18,3	     3735,24	19,6
     42,7229	     3744,29	19,3	     3716,97	20,6
     42,7258	     3745,89	17,1	     3719,59	18,0
     42,7287	     3737,68	21,9	     3709,01	18,9
     42,7317	     3733,37	20,3	     3695,79	18,9
     42,7346	     3716,91	21,9	     3689,37	21,2
     42,7375	     3702,39	20,3	     3688,83	21,4
     42,7405	     3690,54	20,3	     3669,67	21,9
     42,7434	     3695,56	21,9	     3669,93	19,9
     42,7463	     3691,18	23,4	     3653,51	21,7
     42,7493	     3682,04	21,6	     3643,43	21,1
     42,7522	     3664,37	23,5	     3626,63	23,7
     42,7551	     3665,61	22,4	     3635,97	23,5
     42,7581	     3654,62	24,0	     3622,89	23,1
      42,761	     3636,02	22,8	     3608,12	22,1
     42,7639	     3630,01	25,1	     3599,69	24,2
     42,7669	     3625,23	26,1	     3581,67	22,7
     42,7698	     3602,45	23,8	      3576,5	27,1
     42,7727	     3598,74	24,4	     3574,17	25,1
     42,7757	     3585,25	24,3	     3561,98	26,2
     42,7786	     3586,63	27,1	     3551,93	25,2
     42,7815	     3579,24	26,7	     3540,91	25,6
     42,7845	      3555,5	26,3	     3534,35	27,0
     42,7874	     3548,78	25,9	     3529,62	27,6
     42,7903	     3534,71	27,5	     3514,88	26,7
     42,7933	     3535,68	27,9	     3497,79	27,1
     42,7962	     3522,99	29,4	     3484,33	26,6
     42,7991	      3513,3	29,2	     3483,38	28,2
     42,8021	     3490,05	29,2	     3471,11	29,4
      42,805	     3487,05	28,4	     3465,64	27,7
     42,8079	     3476,32	29,4	     3454,97	28,0
     42,8109	     3476,39	30,0	     3439,29	27,1
     42,8138	     3459,15	30,4	     3424,45	30,4
     42,8167	     3444,28	29,5	     3414,45	30,2
     42,8196	     3443,08	30,0	     3417,14	31,0
     42,8226	     3433,85	30,4	     3402,01	28,6
     42,8255	     3428,63	31,5	      3387,2	29,3
     42,8284	     3413,72	32,7	     3388,54	32,1
     42,8314	     3399,73	29,5	     3375,96	32,0
     42,8343	     3396,31	32,1	     3355,62	32,6
     42,8372	     3379,58	31,4	     3348,86	30,1
     42,8402	     3350,89	34,2	     3335,38	32,7
     42,8431	     3349,03	32,3	     3326,27	31,1
      42,846	     3341,57	30,7	      3311,3	33,9
      42,849	     3331,96	31,6	     3313,82	32,6
     42,8519	     3334,13	33,4	     3296,92	32,6
     42,8548	     3316,35	35,3	     3291,01	32,0
     42,8578	     3295,21	32,4	     3278,46	34,4
     42,8607	     3288,02	34,4	     3267,16	33,9
     42,8636	     3281,35	33,2	     3263,91	33,8
     42,8666	     3281,91	37,2	     3235,83	32,9
     42,8695	     3262,12	35,0	     3233,43	34,0
     42,8724	      3242,2	36,8	      3219,3	34,9
     42,8754	     3230,92	34,4	     3216,64	35,2
     42,8783	     3214,73	36,0	     3201,57	36,5
     42,8812	     3211,83	38,4	     3197,81	34,8
     42,8842	     3201,72	34,8	     3182,02	36,6
     42,8871	     3191,21	36,8	        3173	36,8
       42,89	     3190,13	35,9	     3164,11	36,9
      42,893	     3180,25	39,7	     3143,38	36,6
     42,8959	     3179,36	37,1	     3145,69	37,7
     42,8988	     3161,98	35,8	     3132,45	37,5
     42,9018	      3143,1	35,9	      3121,4	37,5
     42,9047	     3123,97	37,9	     3111,88	38,1
     42,9076	     3115,02	41,1	     3099,16	37,4
     42,9106	     3108,55	36,8	     3088,68	37,6
     42,9135	     3096,76	38,8	      3076,2	38,7
     42,9164	     3089,29	38,1	      3073,6	39,6
     42,9194	     3076,75	41,0	     3055,16	39,2
     42,9223	      3073,2	39,9	     3039,05	38,0
     42,9252	     3054,06	38,3	      3017,8	39,3
     42,9282	     3046,79	39,0	      3019,4	39,9
     42,9311	     3027,31	39,7	     3020,77	41,6
      42,934	     3024,69	42,0	     3011,35	39,6
      42,937	     3007,66	40,0	      2994,5	39,8
     42,9399	     2990,79	39,8	     2986,41	40,6
     42,9428	     2999,28	39,7	     2984,65	39,9
     42,9457	     2986,64	43,2	     2965,04	42,3
     42,9487	     2972,12	42,9	     2949,84	38,7
     42,9516	     2963,24	39,8	     2950,13	41,4
     42,9545	     2954,12	42,6	     2935,91	43,2
     42,9575	     2940,61	42,8	     2925,87	43,8
     42,9604	     2918,51	44,7	     2913,62	41,2
     42,9633	     2920,41	41,7	     2906,83	41,2
     42,9663	     2905,95	41,9	     2884,74	43,4
     42,9692	     2896,88	45,1	     2873,49	41,9
     42,9721	     2890,01	44,0	     2867,88	43,2
     42,9751	     2889,56	44,9	     2853,54	41,8
      42,978	      2880,8	42,2	     2853,05	43,8
     42,9809	     2867,04	44,8	     2842,65	45,3
     42,9839	     2857,49	44,8	     2831,52	42,5
     42,9868	     2836,44	43,4	     2826,57	43,3
     42,9897	     2823,55	44,2	        2808	42,5
     42,9927	     2813,82	43,2	     2804,49	45,5
     42,9956	     2799,06	47,2	     2788,86	43,4
     42,9985	      2789,5	44,4	     2784,16	42,4
     43,0015	     2774,01	46,0	     2761,09	43,1
     43,0044	        2776	45,6	     2755,33	45,1
     43,0073	     2769,47	46,0	     2750,25	45,7
     43,0103	     2762,77	46,1	     2748,54	45,0
     43,0132	      2751,3	45,0	     2733,97	45,3
     43,0161	     2730,74	45,8	        2728	46,1
     43,0191	     2731,11	48,5	     2722,86	45,8
      43,022	     2710,37	45,8	     2706,41	46,5
     43,0249	     2707,02	46,5	     2700,31	46,3
     43,0279	     2701,25	45,8	     2687,66	46,8
     43,0308	     2690,51	47,8	     2672,77	46,1
     43,0337	      2674,5	47,4	     2667,02	45,3
     43,0367	     2662,66	46,4	     2654,22	48,3
     43,0396	     2663,25	50,1	      2644,9	46,2
     43,0425	     2645,67	48,0	     2647,84	49,1
     43,0455	     2641,78	49,4	     2638,39	46,2
     43,0484	     2636,07	47,1	     2621,23	46,7
     43,0513	     2619,22	47,6	     2611,81	48,2
     43,0543	     2622,44	50,3	     2610,39	48,5
     43,0572	     2611,15	49,1	     2590,86	47,6
     43,0601	     2597,23	49,3	     2583,44	48,7
      43,063	     2593,13	49,4	     2575,14	49,1
      43,066	     2573,67	50,6	     2571,92	49,7
     43,0689	     2570,36	50,7	     2566,81	47,7
     43,0718	     2555,56	47,6	     2548,98	50,0
     43,0748	     2544,93	51,5	     2541,33	49,6
     43,0777	     2539,88	50,8	     2536,75	49,8
     43,0806	     2530,23	50,5	     2518,48	49,8
     43,0836	      2527,2	49,0	     2511,32	49,6
     43,0865	     2531,93	51,4	     2500,22	51,8
     43,0894	      2502,2	51,9	     2496,25	51,1
     43,0924	     2497,67	50,2	     2492,55	50,6
     43,0953	     2482,44	50,0	     2482,21	50,6
     43,0982	     2469,53	52,8	     2481,62	50,1
     43,1012	     2459,98	50,8	     2466,25	50,0
     43,1041	     2453,75	51,1	     2451,53	49,1
      43,107	     2451,59	50,1	     2448,76	51,8
       43,11	     2432,35	53,0	     2446,65	53,2
     43,1129	     2435,27	52,4	     2437,78	50,8
     43,1158	     2429,76	50,4	     2424,32	51,5
     43,1188	     2414,08	52,1	     2414,26	51,1
     43,1217	     2400,99	53,5	     2404,89	50,2
     43,1246	     2385,86	50,7	     2396,21	51,8
     43,1276	     2388,21	52,5	     2392,95	51,3
     43,1305	     2384,39	52,3	     2377,69	53,2
     43,1334	     2380,68	53,3	     2366,34	52,4
     43,1364	      2359,7	53,5	     2362,72	51,0
     43,1393	        2357	53,4	     2354,19	55,1
     43,1422	     2352,81	55,1	     2340,95	52,4
     43,1452	     2337,78	54,0	     2327,79	53,1
     43,1481	     2314,86	52,7	     2324,19	53,8
      43,151	     2320,19	54,6	     2318,14	51,8
      43,154	      2324,6	53,4	     2306,69	54,7
     43,1569	     2306,33	54,7	      2301,2	52,8
     43,1598	     2308,63	53,0	     2290,41	52,7
     43,1628	     2298,67	54,4	     2288,12	55,0
     43,1657	     2275,72	54,7	     2273,53	53,3
     43,1686	     2274,03	53,9	     2279,64	53,0
     43,1716	     2275,61	54,4	      2274,6	55,5
     43,1745	     2280,42	56,5	     2261,91	53,4
     43,1774	     2269,78	53,8	      2253,7	53,9
     43,1804	     2249,72	55,6	     2240,67	53,2
     43,1833	     2243,52	57,2	     2240,02	55,5
     43,1862	     2240,37	56,9	     2238,52	55,4
     43,1891	     2217,67	55,9	     2217,36	53,1
     43,1921	     2220,31	56,4	     2216,96	56,7
      43,195	     2203,22	55,1	     2201,06	56,3
     43,1979	     2201,81	55,7	     2191,15	53,6
     43,2009	     2194,12	53,9	     2183,09	54,2
     43,2038	     2191,71	56,5	     2177,28	56,2
     43,2067	     2186,52	56,9	     2175,04	54,1
     43,2097	     2161,88	54,8	     2163,37	55,6
     43,2126	     2153,32	56,6	     2156,18	57,7
     43,2155	     2160,05	57,6	     2158,62	56,5
     43,2185	     2147,03	55,0	     2145,38	55,8
     43,2214	     2148,54	57,5	     2144,33	55,5
     43,2243	        2144	56,6	     2136,36	57,3
     43,2273	     2120,25	56,9	      2122,9	56,4
     43,2302	     2111,19	56,7	     2107,41	54,5
     43,2331	     2120,77	57,9	      2112,9	58,3
     43,2361	     2097,18	55,8	     2104,59	56,9
      43,239	     2096,07	55,6	     2105,29	55,9
     43,2419	      2095,8	56,3	     2097,47	59,4
     43,2449	     2089,54	57,9	     2083,51	56,6
     43,2478	     2072,42	57,4	     2071,74	55,4
     43,2507	     2064,05	56,0	      2053,7	57,6
     43,2537	     2065,76	60,9	      2057,1	57,5
     43,2566	     2060,35	57,8	     2056,45	58,6
     43,2595	     2048,66	56,9	        2047	58,6
     43,2625	     2050,72	59,8	     2049,62	58,3
     43,2654	      2043,4	58,5	     2035,82	57,8
     43,2683	     2035,64	57,3	     2021,17	59,1
     43,2713	     2028,99	60,9	     2009,75	58,0
     43,2742	      2022,4	59,9	     2011,99	59,9
     43,2771	     2002,96	59,8	     1998,78	58,3
     43,2801	     2000,36	60,7	     1999,96	57,0
      43,283	     2010,16	58,8	     1990,82	60,8
     43,2859	     2001,08	59,1	     1980,84	58,2
     43,2889	     1985,12	59,3	     1990,37	58,0
     43,2918	     1976,27	59,6	      1982,5	59,6
     43,2947	     1970,86	60,4	     1968,39	58,2
     43,2977	     1966,71	58,1	     1960,65	57,8
     43,3006	     1968,51	59,9	     1960,34	62,0
     43,3035	     1951,29	59,0	     1953,51	59,1
     43,3064	     1958,35	59,9	     1950,06	59,6
     43,3094	     1940,57	60,1	     1943,82	61,4
     43,3123	     1934,69	60,9	     1930,56	57,8
     43,3153	     1930,42	59,4	      1925,7	58,0
     43,3182	     1927,51	60,2	     1918,19	59,7
     43,3211	     1914,77	60,7	     1920,06	60,0
      43,324	     1913,29	59,1	     1909,25	59,6
      43,327	     1906,82	60,5	     1910,64	60,2
     43,3299	     1897,44	61,2	     1904,71	59,8
     43,3328	     1904,47	59,7	     1899,07	58,9
     43,3358	     1898,29	60,7	     1887,18	60,2
     43,3387	     1876,89	61,5	     1878,98	60,1
     43,3416	     1876,91	59,8	     1871,72	60,0
     43,3446	     1864,19	60,9	     1870,96	62,7
     43,3475	     1860,26	63,2	     1872,47	60,3
     43,3504	     1861,12	60,8	     1861,09	61,8
     43,3534	     1847,65	60,0	     1844,83	59,9
     43,3563	     1848,96	62,5	     1844,24	60,9
     43,3592	     1839,84	60,5	     1844,76	60,5
     43,3622	     1844,36	61,1	     1833,02	61,0
     43,3651	     1830,73	63,4	     1827,41	60,3
      43,368	     1824,01	61,1	     1824,48	61,8
      43,371	        1819	60,2	     1811,89	61,3
     43,3739	     1816,98	62,9	     1799,65	61,2
     43,3768	     1811,31	61,3	     1808,06	61,2
     43,3798	     1802,15	61,5	     1802,89	61,8
     43,3827	     1794,79	64,9	     1807,96	61,3
     43,3856	     1784,43	62,3	     1792,05	62,3
     43,3886	     1790,37	62,5	     1780,07	62,0
     43,3915	     1776,93	63,8	     1771,17	62,7
     43,3944	     1775,52	62,3	     1772,22	63,0
     43,3974	     1774,75	62,5	     1760,23	62,4
     43,4003	     1760,75	62,1	     1753,51	62,4
     43,4032	     1757,15	63,2	      1755,4	61,5
     43,4062	     1745,52	62,2	     1752,27	63,7
     43,4091	     1740,99	61,9	     1755,34	61,9
      43,412	     1734,96	62,9	     1752,61	62,3
      43,415	      1748,9	64,4	     1728,25	63,0
     43,4179	     1730,45	63,7	     1733,77	63,1
     43,4208	     1715,99	64,5	      1724,6	62,2
     43,4238	     1729,21	65,0	      1727,9	64,3
     43,4267	     1722,02	61,6	     1722,79	63,6
     43,4296	      1705,8	64,0	     1719,41	62,1
     43,4326	     1702,93	64,4	     1709,58	64,0
     43,4355	     1696,82	62,4	     1694,37	64,2
     43,4384	     1697,17	62,4	     1690,83	62,2
     43,4413	      1693,2	65,5	     1696,89	63,9
     43,4443	     1686,19	62,6	     1693,39	64,4
     43,4472	      1681,7	64,1	     1679,45	61,5
     43,4501	     1680,31	65,9	     1677,75	63,5
     43,4531	      1674,6	63,7	     1669,31	65,3
      43,456	     1667,47	64,6	     1661,08	62,6
     43,4589	      1670,9	65,7	     1668,34	64,6
     43,4619	     1651,94	63,8	     1655,27	64,8
     43,4648	     1649,17	63,9	     1647,75	63,9
     43,4677	     1639,93	63,5	     1647,31	63,6
     43,4707	     1651,05	64,5	     1649,64	65,9
     43,4736	     1643,65	64,9	     1637,56	63,7
     43,4765	     1634,36	64,2	     1634,75	64,0
     43,4795	     1623,51	65,8	     1635,45	64,1
     43,4824	     1629,32	65,1	     1615,82	63,9
     43,4853	     1618,76	63,9	     1617,18	64,5
     43,4883	      1617,8	66,3	     1610,21	63,1
     43,4912	      1614,2	66,3	     1605,91	65,8
     43,4941	        1600	63,1	     1599,49	64,8
     43,4971	      1602,8	65,3	     1595,96	64,0
        43,5	     1606,71	64,5	     1607,63	67,1

