X-Data [Hz]	Piezo (M - Filtered) [mV]	Phase [Deg]	Piezo (M - Filtered) [mV]	Phase [Deg]	
	002: [07-09-24 17:28]		003: [07-09-24 17:31]	
        41,5	     9,62113	-107,8	     9,75784	-109,0
      41,502	     9,54015	-104,0	     9,83862	-105,5
     41,5039	     9,56687	-108,0	      9,8496	-105,8
     41,5059	     9,53445	-105,1	     9,78508	-104,0
     41,5078	     9,72411	-104,2	     9,73575	-106,1
     41,5098	     9,76453	-103,6	     9,86362	-105,1
     41,5117	     9,89451	-102,3	     9,99546	-107,2
     41,5137	     9,78376	-105,0	     10,1235	-104,3
     41,5156	     9,66589	-103,3	     9,76318	-105,1
     41,5176	     9,92862	-106,6	      9,6689	-107,1
     41,5196	      9,9497	-105,7	     9,96302	-108,0
     41,5215	     9,89978	-105,5	     10,0451	-108,9
     41,5235	     9,86103	-104,8	     9,93299	-102,3
     41,5254	     9,89338	-103,5	     9,80821	-104,7
     41,5274	     10,0064	-107,0	     9,81111	-107,9
     41,5293	     9,93959	-106,3	     10,0572	-105,9
     41,5313	     9,93055	-107,1	     10,1499	-106,5
     41,5332	      10,053	-106,8	      10,098	-104,2
     41,5352	     9,92798	-107,3	      10,045	-103,9
     41,5371	     9,93242	-106,1	     10,0505	-102,8
     41,5391	      10,137	-105,3	     10,1198	-103,7
     41,5411	     10,0682	-107,0	      10,228	-106,5
      41,543	     9,91973	-101,2	      10,286	-106,3
      41,545	     10,0671	-101,9	     10,1762	-106,3
     41,5469	      10,086	-104,5	     10,1105	-106,7
     41,5489	     10,1749	-101,7	     10,2616	-105,0
     41,5508	     10,2512	-107,5	     10,3437	-108,0
     41,5528	      10,184	-104,5	     10,2486	-105,2
     41,5547	     10,0492	-103,3	     10,1307	-107,3
     41,5567	     10,0794	-103,5	     10,1462	-104,7
     41,5587	     10,2638	-101,5	     10,2425	-104,5
     41,5606	     10,4155	-107,1	     10,4015	-104,1
     41,5626	     10,2755	-105,8	     10,2957	-104,0
     41,5645	     10,0995	-105,4	       10,43	-107,4
     41,5665	     10,3041	-104,6	     10,4026	-104,6
     41,5684	     10,5108	-104,7	     10,1847	-104,9
     41,5704	     10,3801	-107,2	      10,322	-105,3
     41,5723	     10,3737	-103,5	     10,3319	-101,6
     41,5743	     10,3284	-106,4	     10,3508	-107,3
     41,5762	     10,2612	-103,2	     10,4028	-106,7
     41,5782	     10,2458	-102,4	     10,4504	-105,4
     41,5802	     10,3431	-104,2	     10,4207	-100,9
     41,5821	      10,455	-102,9	     10,4692	-102,2
     41,5841	     10,4873	-106,7	     10,6135	-103,9
      41,586	     10,5339	-106,0	     10,5966	-103,3
      41,588	     10,5146	-103,9	     10,5583	-104,5
     41,5899	     10,3984	-105,8	     10,4246	-104,0
     41,5919	     10,4125	-103,6	     10,5098	-104,2
     41,5938	     10,5938	-105,8	     10,6741	-105,4
     41,5958	     10,6484	-107,9	     10,6352	-103,6
     41,5978	     10,6024	-104,5	     10,7169	-107,6
     41,5997	     10,5216	-106,1	     10,6743	-106,9
     41,6017	     10,5264	-101,8	     10,6994	-103,0
     41,6036	     10,7375	-103,6	     10,6189	-105,3
     41,6056	     10,6609	-104,5	      10,622	-102,1
     41,6075	     10,6173	-102,3	     10,7556	-102,9
     41,6095	     10,6654	-104,8	     10,8814	-105,0
     41,6114	     10,7634	-102,8	     10,8816	-103,2
     41,6134	     10,7805	-105,3	     10,8187	-104,1
     41,6153	     10,7683	-104,4	      10,813	-103,9
     41,6173	     10,6029	-106,5	     10,9196	-106,8
     41,6193	     10,8049	-105,6	     10,8582	-104,0
     41,6212	     10,9624	-102,5	     10,9032	-105,6
     41,6232	      10,834	-105,0	     10,9718	-108,9
     41,6251	     10,8427	-103,6	     10,8243	-99,9
     41,6271	     10,7525	-104,0	     10,9175	-103,5
      41,629	     10,8168	-104,5	     11,0015	-102,6
      41,631	     11,0067	-103,5	     10,9165	-104,0
     41,6329	     10,9905	-105,3	     11,0932	-105,6
     41,6349	     10,9832	-103,9	     11,0619	-102,4
     41,6369	     10,9385	-105,6	      11,048	-106,2
     41,6388	     11,0322	-104,6	      11,016	-103,2
     41,6408	     11,0394	-105,0	     11,1428	-104,6
     41,6427	     11,0833	-105,9	     11,2328	-105,5
     41,6447	     11,0681	-102,9	     11,1286	-102,3
     41,6466	     11,0446	-102,1	     11,0927	-105,5
     41,6486	     11,0842	-105,1	     11,2286	-101,7
     41,6505	     11,0935	-101,4	     11,0514	-100,7
     41,6525	     11,2485	-106,9	     11,1743	-105,0
     41,6544	     11,2462	-103,7	     11,2343	-103,0
     41,6564	     11,3091	-103,1	     11,4621	-103,5
     41,6584	     11,3789	-105,4	     11,3769	-105,4
     41,6603	     11,1777	-102,6	     11,3715	-102,3
     41,6623	     11,2003	-103,8	     11,3114	-103,5
     41,6642	     11,1562	-106,8	     11,1719	-104,2
     41,6662	     11,3966	-103,4	     11,3805	-104,9
     41,6681	     11,4297	-104,0	     11,4933	-104,9
     41,6701	     11,3642	-102,5	     11,3946	-103,6
      41,672	     11,4796	-99,8	     11,4726	-105,2
      41,674	     11,3902	-104,3	     11,5145	-103,5
      41,676	     11,3019	-101,1	     11,4757	-101,4
     41,6779	     11,5215	-106,6	     11,5791	-103,9
     41,6799	     11,4073	-106,6	     11,6549	-103,1
     41,6818	     11,5072	-103,0	     11,5065	-105,4
     41,6838	     11,5562	-103,7	     11,6645	-105,2
     41,6857	     11,6411	-102,0	     11,6315	-102,3
     41,6877	     11,7201	-104,2	     11,5243	-104,7
     41,6896	      11,564	-102,2	      11,591	-102,7
     41,6916	     11,5192	-103,3	     11,7288	-100,8
     41,6936	     11,5134	-102,3	     11,7797	-103,7
     41,6955	     11,6781	-101,0	     11,6694	-101,8
     41,6975	     11,6547	-105,3	     11,6022	-106,1
     41,6994	     11,5392	-104,4	     11,7218	-105,0
     41,7014	     11,6654	-100,4	     11,8814	-103,3
     41,7033	     11,9397	-105,2	     11,9159	-102,9
     41,7053	     11,9779	-105,7	     11,9073	-100,8
     41,7072	     11,8389	-102,4	     11,8204	-103,5
     41,7092	     11,6714	-103,5	     11,7835	-103,0
     41,7111	     11,6705	-100,5	     11,8593	-102,5
     41,7131	     11,9301	-101,2	     11,9866	-103,3
     41,7151	     11,9922	-102,6	     11,9578	-100,8
      41,717	     11,8359	-101,3	     12,0993	-107,1
      41,719	     11,8637	-103,0	     12,1272	-104,4
     41,7209	     11,9741	-101,2	     12,0137	-101,8
     41,7229	     12,1478	-99,0	     11,9875	-105,9
     41,7248	     12,0133	-103,4	     12,0181	-100,7
     41,7268	     12,1096	-104,1	     12,0872	-102,2
     41,7287	     12,1268	-104,4	     12,2195	-103,3
     41,7307	     12,0184	-102,0	     12,2752	-99,7
     41,7327	     12,0435	-101,5	     12,2156	-101,2
     41,7346	     11,9805	-102,3	     12,2443	-104,3
     41,7366	     12,0223	-102,0	     12,2145	-102,2
     41,7385	     12,1225	-101,4	     12,2945	-103,6
     41,7405	     12,2661	-105,1	     12,2634	-102,5
     41,7424	     12,2757	-102,9	     12,2327	-102,5
     41,7444	     12,3122	-103,0	     12,3988	-103,6
     41,7463	     12,3411	-104,1	     12,4255	-102,2
     41,7483	     12,2704	-101,6	      12,521	-104,1
     41,7502	     12,2816	-102,3	     12,2793	-101,5
     41,7522	     12,3181	-100,1	     12,4041	-101,1
     41,7542	     12,3091	-101,6	     12,5545	-102,0
     41,7561	     12,4579	-103,5	     12,4449	-100,2
     41,7581	     12,5367	-101,8	     12,4561	-103,0
       41,76	     12,3678	-102,3	     12,6551	-104,6
      41,762	     12,4094	-102,1	     12,5097	-101,3
     41,7639	     12,3421	-102,5	     12,5716	-103,3
     41,7659	     12,3932	-105,0	     12,5862	-100,6
     41,7678	     12,5979	-100,1	     12,7004	-99,7
     41,7698	     12,7508	-100,5	     12,8542	-103,1
     41,7718	      12,804	-102,6	     12,8962	-102,3
     41,7737	     12,7902	-101,0	     12,7663	-102,2
     41,7757	     12,5499	-102,9	     12,7609	-103,3
     41,7776	     12,5105	-101,7	     12,5981	-102,4
     41,7796	     12,8304	-100,8	     12,8375	-103,6
     41,7815	      12,714	-104,3	      13,003	-99,8
     41,7835	     12,7975	-99,2	     12,9676	-99,0
     41,7854	     12,6737	-103,3	     13,0268	-103,1
     41,7874	     12,7335	-103,5	      12,968	-101,9
     41,7893	     12,7727	-98,4	     12,8426	-103,1
     41,7913	     12,8193	-99,0	     12,8634	-104,1
     41,7933	      12,927	-101,9	     12,9621	-104,5
     41,7952	     12,9877	-101,1	     13,0615	-101,3
     41,7972	     13,1115	-104,0	     13,1235	-102,4
     41,7991	     12,9949	-103,3	     13,0635	-100,4
     41,8011	     12,8698	-101,6	     13,0877	-100,8
      41,803	     12,9301	-102,1	     13,2181	-102,3
      41,805	      12,964	-101,0	     13,1779	-102,1
     41,8069	     13,2048	-101,4	     13,2771	-103,8
     41,8089	     13,3197	-102,1	     13,2924	-100,3
     41,8109	     13,2921	-102,5	     13,2622	-101,1
     41,8128	     13,3464	-101,7	     13,3483	-101,4
     41,8148	     13,2704	-101,3	     13,2844	-101,9
     41,8167	     13,2031	-99,9	     13,3395	-101,2
     41,8187	     13,2979	-100,9	      13,374	-103,1
     41,8206	     13,3291	-101,4	     13,4003	-101,1
     41,8226	     13,3205	-102,8	     13,4148	-100,9
     41,8245	     13,3389	-103,8	      13,462	-101,2
     41,8265	     13,4088	-100,7	     13,6158	-98,3
     41,8284	     13,4028	-100,9	     13,5945	-101,1
     41,8304	     13,5171	-103,5	     13,5474	-99,4
     41,8324	     13,4157	-98,1	     13,6179	-104,2
     41,8343	     13,5962	-98,3	      13,722	-103,4
     41,8363	     13,6164	-100,9	       13,74	-98,7
     41,8382	     13,4457	-99,0	     13,7086	-100,8
     41,8402	     13,6163	-103,2	     13,8041	-100,2
     41,8421	     13,6148	-104,4	      13,795	-99,2
     41,8441	     13,6843	-99,1	     13,9198	-102,2
      41,846	     13,8007	-99,4	     13,8848	-101,8
      41,848	     13,7873	-98,6	     13,7761	-100,5
       41,85	     13,8445	-97,8	     13,7951	-102,2
     41,8519	     13,8718	-103,1	     13,9068	-105,0
     41,8539	     13,8014	-100,3	     13,9778	-99,5
     41,8558	     13,9666	-101,7	     14,0341	-100,6
     41,8578	     13,9242	-102,4	     14,0008	-95,8
     41,8597	     13,8902	-99,1	     13,9514	-99,0
     41,8617	     14,0314	-99,7	     14,2158	-102,8
     41,8636	     14,0189	-99,8	     14,3461	-100,6
     41,8656	     14,0498	-99,1	     14,3576	-102,8
     41,8675	     13,9874	-99,4	     14,2865	-101,0
     41,8695	     13,9727	-99,5	     14,2048	-98,7
     41,8715	     14,1524	-97,7	     14,3163	-100,6
     41,8734	     14,1487	-102,2	     14,2754	-97,7
     41,8754	     14,2531	-101,1	     14,4056	-98,5
     41,8773	     14,3376	-97,8	     14,5056	-101,8
     41,8793	     14,3342	-100,1	     14,5077	-101,2
     41,8812	     14,2334	-98,5	     14,3377	-101,3
     41,8832	     14,2794	-96,9	     14,3737	-103,4
     41,8851	      14,316	-102,6	     14,5224	-98,9
     41,8871	     14,2711	-101,0	     14,6413	-96,9
     41,8891	     14,3377	-99,6	      14,666	-100,5
      41,891	     14,3158	-100,9	     14,6433	-97,4
      41,893	     14,3776	-96,7	     14,6869	-101,7
     41,8949	     14,5998	-98,2	      14,778	-103,8
     41,8969	     14,7094	-99,1	     14,8493	-98,5
     41,8988	     14,7155	-98,0	      14,891	-101,0
     41,9008	     14,6259	-101,3	     14,8834	-97,3
     41,9027	     14,5793	-101,5	     14,8698	-97,0
     41,9047	     14,5715	-100,0	      14,881	-99,1
     41,9066	      14,686	-100,6	     14,8957	-99,9
     41,9086	      14,833	-97,5	     15,1067	-99,1
     41,9106	     14,9088	-96,8	     15,1808	-100,2
     41,9125	     14,9371	-98,7	     15,1482	-100,2
     41,9145	     14,9993	-99,2	       15,24	-97,8
     41,9164	     14,9682	-98,6	     15,1956	-101,2
     41,9184	     14,9286	-99,7	     15,1473	-96,4
     41,9203	     15,1318	-99,7	     15,2002	-97,1
     41,9223	     15,2512	-97,9	     15,2052	-99,0
     41,9242	     15,2181	-99,5	     15,3476	-96,7
     41,9262	     15,0145	-99,5	     15,3444	-96,9
     41,9282	     15,1137	-97,6	      15,408	-100,8
     41,9301	     15,1491	-99,0	      15,479	-99,5
     41,9321	     15,2164	-98,8	     15,3948	-99,2
      41,934	     15,3082	-97,8	     15,5063	-101,2
      41,936	     15,2144	-99,3	      15,598	-96,5
     41,9379	     15,2731	-97,1	     15,6701	-97,4
     41,9399	      15,479	-97,4	     15,7026	-99,5
     41,9418	     15,5842	-98,9	     15,6494	-97,0
     41,9438	     15,5248	-98,6	     15,7206	-99,0
     41,9457	     15,4292	-97,3	     15,6986	-98,4
     41,9477	     15,5509	-98,4	     15,7722	-97,3
     41,9497	     15,5605	-95,5	     15,9925	-99,3
     41,9516	      15,747	-95,5	     15,8795	-98,1
     41,9536	     15,7997	-100,2	     15,9315	-97,9
     41,9555	     15,7688	-97,1	     16,0103	-97,3
     41,9575	     15,8039	-97,0	     15,9676	-100,3
     41,9594	     15,8919	-97,9	     15,9533	-96,8
     41,9614	      15,913	-97,2	     16,1753	-96,9
     41,9633	     15,9153	-97,7	     16,3983	-98,2
     41,9653	     15,9725	-99,1	     16,3134	-98,9
     41,9673	     16,0601	-93,7	      16,354	-99,3
     41,9692	     16,1956	-95,8	     16,3724	-96,7
     41,9712	     16,0717	-98,9	     16,3963	-96,1
     41,9731	     16,0072	-97,1	     16,4599	-98,3
     41,9751	     16,1085	-98,2	     16,4629	-98,1
      41,977	     16,2396	-101,6	     16,6155	-96,2
      41,979	      16,217	-95,9	     16,5299	-96,3
     41,9809	     16,3508	-97,6	     16,5691	-97,0
     41,9829	     16,2461	-95,0	     16,5675	-98,9
     41,9848	     16,2864	-94,9	     16,7499	-100,4
     41,9868	      16,313	-99,0	     16,9099	-98,4
     41,9888	     16,4775	-97,7	     16,6998	-96,2
     41,9907	     16,6672	-98,8	     16,7552	-98,1
     41,9927	     16,7435	-97,8	      16,668	-94,1
     41,9946	     16,6593	-98,8	     16,7068	-95,1
     41,9966	     16,6937	-96,1	     16,8552	-99,2
     41,9985	     16,7619	-97,5	     17,0327	-95,6
     42,0005	     16,6791	-94,8	     17,1431	-97,1
     42,0024	     16,7949	-93,1	     17,1804	-97,5
     42,0044	     16,9666	-98,4	     17,1747	-96,7
     42,0064	     16,9607	-98,3	     17,2507	-96,3
     42,0083	     17,0549	-95,7	     17,1715	-96,9
     42,0103	     17,0604	-97,7	     17,2588	-97,0
     42,0122	     17,0948	-98,6	      17,366	-95,6
     42,0142	     17,3202	-94,5	     17,5639	-95,5
     42,0161	     17,2613	-97,7	     17,6183	-93,0
     42,0181	     17,1253	-96,5	     17,5515	-94,2
       42,02	     17,2154	-94,6	     17,6652	-97,6
      42,022	     17,3008	-95,8	     17,7075	-97,1
     42,0239	      17,387	-95,4	     17,7328	-96,7
     42,0259	     17,5918	-94,7	     17,8707	-98,1
     42,0279	     17,6863	-95,9	     17,8581	-93,1
     42,0298	        17,6	-95,3	     17,9085	-93,4
     42,0318	     17,5475	-97,2	     17,8332	-95,0
     42,0337	     17,6825	-96,3	     17,9509	-93,3
     42,0357	      17,737	-95,3	     17,9571	-93,3
     42,0376	      17,809	-92,5	     18,0139	-96,9
     42,0396	     17,8295	-93,7	     18,0034	-95,1
     42,0415	     18,0057	-95,5	     17,9394	-95,0
     42,0435	      17,822	-93,3	     18,1312	-95,8
     42,0455	      17,872	-93,7	      18,278	-94,5
     42,0474	      17,925	-96,1	     18,2681	-95,3
     42,0494	     17,9883	-94,3	     18,3731	-95,9
     42,0513	     18,1399	-97,7	     18,4235	-96,8
     42,0533	     18,1023	-97,4	     18,5623	-93,6
     42,0552	     18,2154	-92,4	      18,724	-94,2
     42,0572	     18,3399	-93,5	     18,8522	-92,9
     42,0591	     18,2363	-94,8	     18,8455	-91,6
     42,0611	     18,3165	-92,7	     18,8143	-92,1
      42,063	     18,5399	-93,6	     18,9605	-97,4
      42,065	     18,4791	-94,7	     19,0505	-93,9
      42,067	     18,5587	-92,4	     19,0401	-94,4
     42,0689	     18,7202	-93,5	      19,114	-96,7
     42,0709	     18,7324	-95,7	     19,0964	-91,7
     42,0728	      18,689	-93,6	     19,0844	-93,1
     42,0748	     18,7661	-93,1	     19,1379	-93,3
     42,0767	      18,968	-95,9	     19,2214	-92,5
     42,0787	     19,0245	-95,4	     19,3529	-93,8
     42,0806	     18,9203	-90,9	     19,4429	-93,4
     42,0826	     19,0888	-92,7	     19,5674	-92,7
     42,0846	     19,0026	-92,4	     19,5805	-91,6
     42,0865	     19,0584	-91,9	     19,6036	-94,7
     42,0885	     19,1606	-95,3	     19,6877	-95,1
     42,0904	     19,2273	-93,4	     19,7285	-94,8
     42,0924	     19,3721	-92,3	     19,9935	-93,5
     42,0943	     19,4458	-90,9	     19,9996	-92,1
     42,0963	     19,4809	-94,2	     19,9302	-91,1
     42,0982	      19,519	-93,5	     20,0063	-94,3
     42,1002	     19,6402	-93,2	     20,0277	-91,8
     42,1021	     19,6749	-94,2	     20,2166	-90,5
     42,1041	     19,8062	-88,8	     20,2223	-91,6
     42,1061	     19,9414	-90,2	     20,4001	-93,4
      42,108	     19,9499	-93,0	     20,5049	-90,8
       42,11	      19,933	-90,6	     20,5618	-95,0
     42,1119	     20,0022	-88,4	     20,5883	-93,7
     42,1139	     20,1812	-94,8	      20,595	-89,4
     42,1158	     20,1834	-93,6	      20,695	-92,0
     42,1178	     20,2459	-92,6	     20,8651	-91,3
     42,1197	     20,2987	-93,6	     20,7932	-89,2
     42,1217	     20,3337	-90,7	     20,8018	-89,8
     42,1237	     20,3243	-90,1	     20,8712	-92,5
     42,1256	     20,4824	-91,3	     21,0151	-93,0
     42,1276	     20,5694	-92,4	     21,0856	-88,4
     42,1295	     20,6697	-89,0	     21,2349	-89,0
     42,1315	     20,6739	-89,6	     21,3901	-91,8
     42,1334	     20,7138	-91,8	     21,4631	-89,8
     42,1354	     20,8477	-90,1	     21,3891	-91,8
     42,1373	     20,9352	-91,8	     21,4273	-92,7
     42,1393	     20,9611	-92,0	     21,5208	-90,2
     42,1413	     21,0484	-90,1	     21,6442	-91,5
     42,1432	      21,098	-90,4	     21,7961	-90,2
     42,1452	     21,3488	-93,2	     21,9015	-90,8
     42,1471	     21,2838	-91,7	     21,8971	-89,9
     42,1491	     21,4332	-87,5	     21,9696	-89,4
      42,151	     21,5491	-88,8	     22,0833	-88,4
      42,153	     21,4805	-88,8	      22,132	-87,3
     42,1549	     21,5528	-88,0	      22,315	-91,3
     42,1569	     21,7886	-91,5	      22,318	-88,4
     42,1588	     21,7572	-91,9	     22,3989	-87,2
     42,1608	     21,8111	-89,3	     22,3849	-91,8
     42,1628	     21,8631	-86,3	     22,5605	-92,8
     42,1647	      22,066	-90,8	     22,5764	-87,9
     42,1667	     22,1681	-87,2	     22,7243	-89,2
     42,1686	     22,3135	-87,6	     22,8225	-90,8
     42,1706	     22,3622	-89,9	     22,9006	-87,2
     42,1725	     22,2844	-87,5	      23,059	-86,9
     42,1745	      22,379	-86,2	     23,2088	-87,4
     42,1764	      22,484	-88,2	     23,2132	-89,5
     42,1784	      22,562	-91,3	     23,2985	-86,6
     42,1804	     22,6074	-83,6	     23,3831	-87,2
     42,1823	     22,8503	-84,9	     23,6516	-89,4
     42,1843	      22,906	-88,7	     23,7152	-86,5
     42,1862	     22,9699	-87,4	     23,6757	-88,6
     42,1882	     23,1173	-88,2	     23,7398	-88,9
     42,1901	      23,126	-91,4	     23,8723	-87,1
     42,1921	     23,0679	-85,8	     23,9021	-85,3
      42,194	     23,1472	-86,0	     24,0543	-89,4
      42,196	     23,2764	-87,0	     24,1327	-88,1
     42,1979	     23,4951	-88,2	     24,2851	-85,8
     42,1999	      23,593	-87,4	     24,3896	-86,7
     42,2019	     23,6854	-85,7	     24,6245	-85,2
     42,2038	     23,7618	-87,1	     24,7322	-84,2
     42,2058	     23,8564	-83,1	      24,823	-87,3
     42,2077	     24,0233	-82,6	     24,8334	-86,4
     42,2097	     24,1361	-87,3	     25,0376	-83,4
     42,2116	      24,146	-86,2	     25,0625	-85,7
     42,2136	     24,1952	-86,5	     25,1987	-86,5
     42,2155	     24,3081	-87,3	     25,2043	-86,0
     42,2175	     24,4621	-85,9	     25,1648	-86,0
     42,2195	     24,4719	-85,7	     25,3765	-86,2
     42,2214	     24,5914	-86,4	     25,4553	-85,8
     42,2234	     24,6426	-88,7	      25,652	-84,7
     42,2253	     24,7013	-84,5	     25,7374	-86,2
     42,2273	     24,7812	-84,1	     25,8361	-86,8
     42,2292	      24,968	-86,2	      26,014	-81,3
     42,2312	     25,1373	-84,0	     26,1165	-81,1
     42,2331	     25,2297	-81,6	     26,2118	-84,0
     42,2351	     25,4136	-82,9	     26,5418	-82,3
      42,237	     25,4289	-84,5	     26,6031	-81,8
      42,239	      25,501	-82,2	     26,6438	-84,8
      42,241	     25,6222	-82,9	     26,7358	-84,2
     42,2429	     25,7132	-84,1	     26,9037	-82,2
     42,2449	     25,8318	-82,9	     26,9476	-80,9
     42,2468	     25,9171	-82,5	     27,1114	-84,4
     42,2488	      26,006	-87,4	     27,2657	-84,4
     42,2507	     26,0706	-84,8	     27,2664	-81,4
     42,2527	      26,124	-83,5	     27,3969	-82,2
     42,2546	     26,4561	-82,6	     27,5477	-83,4
     42,2566	     26,5985	-82,9	     27,8061	-82,5
     42,2586	     26,7213	-81,4	     27,8657	-81,5
     42,2605	     26,8963	-80,6	     27,9698	-83,7
     42,2625	     27,0034	-82,2	     28,1953	-78,3
     42,2644	     27,0746	-82,1	     28,3187	-78,7
     42,2664	     27,0858	-77,9	     28,4474	-80,8
     42,2683	     27,2258	-78,4	     28,5741	-82,1
     42,2703	     27,2466	-81,2	     28,6851	-78,6
     42,2722	     27,3573	-81,0	     28,7602	-78,7
     42,2742	     27,5195	-80,7	     29,0724	-79,6
     42,2761	     27,6574	-81,3	     29,0989	-78,8
     42,2781	       27,77	-79,4	     29,0713	-79,4
     42,2801	     27,8987	-77,4	     29,2579	-80,5
      42,282	     28,1765	-81,7	     29,4881	-80,3
      42,284	     28,2774	-81,3	     29,6139	-79,1
     42,2859	     28,5257	-77,8	     29,6832	-80,5
     42,2879	     28,6849	-78,3	     29,8155	-81,9
     42,2898	      28,923	-80,6	     29,9007	-76,4
     42,2918	     28,9315	-80,2	     30,1116	-77,4
     42,2937	     29,0629	-77,1	     30,3636	-78,5
     42,2957	     29,1698	-77,1	     30,4856	-79,5
     42,2977	     29,3594	-78,9	     30,6674	-75,3
     42,2996	     29,4008	-79,7	      30,791	-75,8
     42,3016	     29,5585	-76,2	     30,9626	-76,9
     42,3035	     29,7393	-76,0	     31,0954	-76,5
     42,3055	     29,6861	-77,2	     31,2047	-75,6
     42,3074	     29,7164	-76,0	     31,3172	-77,8
     42,3094	     29,8793	-77,0	     31,5978	-75,2
     42,3113	     29,9421	-77,2	     31,7413	-74,9
     42,3133	     30,1106	-76,0	     31,9024	-73,4
     42,3153	      30,236	-74,1	     32,1803	-77,5
     42,3172	     30,4907	-77,0	     32,2486	-74,6
     42,3192	     30,5936	-76,1	     32,4346	-72,6
     42,3211	     30,7893	-73,5	     32,4314	-74,9
     42,3231	     30,8557	-75,1	     32,6401	-77,4
      42,325	     30,9786	-77,7	     32,8279	-74,2
      42,327	     31,1281	-76,2	     32,9614	-74,2
     42,3289	     31,3138	-71,6	     33,0832	-74,9
     42,3309	     31,3687	-75,5	     33,2949	-70,0
     42,3328	     31,6084	-72,3	     33,4694	-71,6
     42,3348	     31,7309	-73,5	     33,7014	-74,3
     42,3368	     31,8611	-72,3	     33,8901	-75,6
     42,3387	     31,9717	-73,6	     34,0374	-70,1
     42,3407	     32,1332	-71,2	     34,2173	-70,0
     42,3426	      32,379	-71,2	     34,3901	-71,5
     42,3446	     32,5024	-73,4	     34,4917	-69,5
     42,3465	     32,6862	-73,2	     34,6154	-68,5
     42,3485	     32,8989	-69,4	     34,8077	-71,3
     42,3504	     33,0732	-69,0	     35,0299	-70,7
     42,3524	      33,273	-74,0	     35,1494	-71,9
     42,3544	     33,3135	-74,2	     35,5197	-68,5
     42,3563	     33,5791	-70,2	     35,6626	-69,4
     42,3583	     33,6705	-70,0	     35,6747	-71,1
     42,3602	     33,7152	-70,1	     35,7839	-68,1
     42,3622	     33,9914	-71,4	     35,9433	-69,2
     42,3641	     34,0784	-69,8	     36,0195	-69,9
     42,3661	      34,332	-69,1	     36,3122	-68,3
      42,368	     34,3831	-72,6	      36,478	-67,2
       42,37	     34,5454	-67,7	     36,6535	-67,8
     42,3719	     34,7253	-67,9	     36,8359	-67,5
     42,3739	     34,8618	-68,4	     37,0188	-65,6
     42,3759	     34,8674	-69,7	     37,1881	-65,9
     42,3778	     35,0597	-66,3	     37,3666	-67,4
     42,3798	     35,1526	-66,2	     37,4725	-69,0
     42,3817	     35,4537	-66,9	     37,7109	-63,1
     42,3837	     35,6521	-66,9	       37,89	-63,2
     42,3856	     35,8835	-63,6	     38,0103	-65,3
     42,3876	     36,0254	-62,9	     38,2571	-65,9
     42,3895	     36,1871	-66,9	     38,5255	-60,7
     42,3915	     36,3585	-66,4	     38,6049	-62,2
     42,3935	     36,4423	-62,4	     38,7783	-63,8
     42,3954	     36,7137	-62,3	     39,0407	-61,1
     42,3974	     36,9311	-65,2	     39,2092	-61,2
     42,3993	     37,0468	-63,1	     39,3742	-62,0
     42,4013	     37,3211	-63,5	     39,4336	-60,7
     42,4032	     37,4343	-63,7	       39,74	-59,2
     42,4052	     37,5853	-64,0	     39,8679	-59,8
     42,4071	     37,7137	-60,5	     40,0222	-59,5
     42,4091	     37,9587	-62,9	     40,0823	-60,9
      42,411	      38,068	-62,0	     40,2689	-56,2
      42,413	     38,2034	-60,7	     40,3885	-57,5
      42,415	     38,3607	-59,7	     40,7242	-60,1
     42,4169	       38,54	-61,0	     41,0272	-59,5
     42,4189	     38,6262	-62,6	     41,2376	-55,6
     42,4208	     38,6634	-62,7	      41,364	-56,6
     42,4228	     38,9417	-59,5	     41,4538	-60,9
     42,4247	     39,1202	-58,8	     41,5669	-58,3
     42,4267	     39,2843	-59,5	     41,6562	-56,3
     42,4286	     39,3905	-58,6	     41,6854	-55,5
     42,4306	     39,5678	-56,0	      41,761	-56,5
     42,4326	     39,6715	-60,2	     42,0291	-56,7
     42,4345	     39,8341	-57,5	     41,9918	-55,6
     42,4365	     39,9337	-56,7	     42,1594	-53,9
     42,4384	     40,1708	-55,8	     42,3983	-55,0
     42,4404	     40,3896	-53,8	     42,6927	-53,4
     42,4423	     40,3599	-54,9	     42,8627	-53,1
     42,4443	     40,6619	-53,9	     42,9366	-51,9
     42,4462	     40,9317	-53,0	     43,0898	-54,4
     42,4482	     41,1731	-52,2	     43,2183	-51,3
     42,4501	     41,1989	-52,2	     43,3128	-50,6
     42,4521	     41,4209	-52,2	     43,3332	-51,5
     42,4541	     41,6279	-52,1	     43,5799	-52,3
      42,456	     41,7708	-52,9	     43,7572	-47,8
      42,458	     41,8051	-52,5	     43,7798	-48,3
     42,4599	     41,9457	-50,7	     43,7879	-50,8
     42,4619	     42,0846	-52,5	     43,9663	-48,5
     42,4638	     42,2147	-52,2	     44,1291	-45,7
     42,4658	      42,417	-49,6	     44,2079	-45,2
     42,4677	     42,4666	-49,0	     44,3475	-47,7
     42,4697	     42,7546	-52,1	     44,3678	-46,4
     42,4717	     42,8886	-51,6	     44,4683	-44,7
     42,4736	     43,0106	-49,6	     44,6421	-43,1
     42,4756	     43,2257	-47,0	     44,6053	-46,0
     42,4775	     43,4078	-48,8	     44,7243	-46,4
     42,4795	     43,5369	-50,5	     44,9067	-43,5
     42,4814	     43,7211	-44,4	     45,0274	-42,3
     42,4834	     43,8861	-45,9	     45,0866	-46,7
     42,4853	     43,9826	-48,2	     45,2209	-43,8
     42,4873	     43,9021	-47,1	     45,3131	-42,5
     42,4892	     44,1164	-46,4	     45,3489	-40,1
     42,4912	     44,2795	-43,3	     45,3265	-44,1
     42,4932	      44,333	-43,2	     45,4748	-43,2
     42,4951	     44,4078	-46,8	     45,6493	-40,2
     42,4971	     44,5839	-45,2	     45,6502	-39,8
      42,499	     44,7295	-41,2	      45,737	-42,1
      42,501	     44,7876	-42,1	     45,7913	-42,0
     42,5029	      44,913	-41,3	     45,8236	-39,8
     42,5049	     45,0451	-41,9	     45,8429	-38,1
     42,5068	     45,1807	-38,9	      45,776	-39,3
     42,5088	     45,3388	-40,7	      46,047	-39,2
     42,5108	     45,3187	-38,6	     45,9914	-38,6
     42,5127	     45,3597	-38,6	     46,1078	-36,6
     42,5147	     45,5685	-38,3	     46,0737	-38,5
     42,5166	     45,6524	-38,4	     46,1255	-38,1
     42,5186	     45,6086	-38,2	     46,2644	-36,4
     42,5205	     45,5884	-37,3	     46,1811	-34,5
     42,5225	     45,8105	-35,5	     46,1637	-36,5
     42,5244	     45,7801	-37,0	     46,2394	-37,2
     42,5264	     45,9612	-36,8	     46,3159	-35,5
     42,5283	     46,0385	-32,7	     46,3943	-33,2
     42,5303	     45,9982	-33,8	     46,3987	-32,6
     42,5323	     46,1648	-34,7	     46,4019	-35,7
     42,5342	     46,2424	-35,4	      46,396	-31,3
     42,5362	     46,1575	-32,3	     46,4974	-31,0
     42,5381	     46,2735	-33,3	     46,5032	-32,9
     42,5401	     46,3275	-33,4	     46,5579	-32,7
      42,542	     46,3781	-33,0	     46,5634	-28,1
      42,544	     46,2288	-30,2	     46,6677	-30,0
     42,5459	     46,2784	-29,6	     46,4291	-31,1
     42,5479	     46,4464	-31,3	     46,5422	-31,5
     42,5499	     46,4553	-31,2	     46,5118	-30,6
     42,5518	     46,5673	-29,1	      46,511	-28,7
     42,5538	     46,4794	-28,6	     46,5792	-28,8
     42,5557	     46,6302	-30,1	     46,6096	-29,7
     42,5577	     46,6567	-30,1	     46,5854	-29,8
     42,5596	     46,6904	-29,2	     46,5004	-25,1
     42,5616	     46,6741	-26,9	     46,5683	-26,7
     42,5635	     46,5968	-28,0	       46,53	-27,6
     42,5655	     46,5418	-29,0	     46,4821	-27,2
     42,5674	     46,6245	-26,8	     46,4333	-24,9
     42,5694	      46,553	-25,5	      46,477	-23,7
     42,5714	     46,6338	-23,6	     46,4587	-26,6
     42,5733	     46,7672	-28,5	      46,421	-26,3
     42,5753	     46,6983	-27,1	     46,4536	-23,1
     42,5772	     46,7377	-25,2	     46,4838	-22,6
     42,5792	     46,7455	-21,6	     46,2566	-24,2
     42,5811	     46,7874	-25,6	     46,1973	-25,5
     42,5831	     46,6247	-25,7	     46,1104	-22,4
      42,585	     46,7241	-23,0	     46,0887	-23,0
      42,587	     46,8045	-20,9	     46,0489	-22,7
      42,589	     46,5257	-25,5	     46,0499	-24,2
     42,5909	     46,5513	-23,2	     46,1135	-20,6
     42,5929	     46,5616	-21,3	     46,1208	-19,2
     42,5948	     46,5636	-21,2	     45,9163	-19,8
     42,5968	     46,4405	-25,3	     45,7493	-21,4
     42,5987	     46,4325	-23,3	     45,7493	-21,4
     42,6007	     46,3909	-20,5	     45,7542	-18,3
     42,6026	     46,4091	-20,5	     45,8516	-18,9
     42,6046	     46,3806	-21,3	      45,734	-17,9
     42,6065	     46,3504	-20,1	     45,6299	-19,6
     42,6085	       46,34	-20,0	     45,5117	-20,2
     42,6105	     46,2723	-18,1	     45,3469	-18,2
     42,6124	     46,2083	-18,4	     45,3347	-16,2
     42,6144	     46,1997	-18,9	     45,3287	-16,6
     42,6163	     46,1231	-17,9	     45,1867	-17,1
     42,6183	      46,123	-17,6	     45,2049	-17,2
     42,6202	     46,0695	-17,6	     44,9697	-15,1
     42,6222	     45,9895	-16,7	     44,9329	-14,5
     42,6241	     45,9019	-17,2	     44,9008	-15,4
     42,6261	     45,8577	-15,9	     44,9137	-17,7
     42,6281	     45,6734	-14,8	     45,0069	-12,5
       42,63	      45,637	-15,7	     44,8958	-13,7
      42,632	     45,5581	-15,6	     44,7844	-15,9
     42,6339	     45,4806	-14,2	     44,7055	-15,7
     42,6359	     45,3892	-12,9	     44,6072	-11,9
     42,6378	     45,4644	-15,4	      44,581	-11,3
     42,6398	      45,418	-14,8	     44,3906	-13,5
     42,6417	     45,2086	-13,5	     44,4315	-13,1
     42,6437	      45,091	-12,3	       44,29	-10,7
     42,6456	     45,0112	-10,5	     44,1678	-10,4
     42,6476	     44,7906	-13,2	     44,0146	-11,9
     42,6496	     44,8026	-12,4	     43,9511	-12,2
     42,6515	     44,7989	-11,3	     43,9622	-11,4
     42,6535	      44,851	-8,6	     43,8348	-10,3
     42,6554	      44,806	-11,2	     43,8057	-10,3
     42,6574	     44,6545	-11,7	     43,7575	-9,3
     42,6593	     44,5001	-10,4	     43,6581	-11,3
     42,6613	     44,3262	-9,7	     43,5085	-10,2
     42,6632	     44,3264	-7,5	     43,5524	-7,1
     42,6652	      44,342	-9,5	     43,3726	-7,9
     42,6672	      44,095	-8,3	     43,2723	-9,9
     42,6691	     44,0129	-7,9	     43,1775	-9,2
     42,6711	     43,8798	-6,0	     43,1123	-7,0
      42,673	     43,8865	-6,4	     42,9957	-6,3
      42,675	     43,8117	-8,2	     42,7773	-4,5
     42,6769	     43,6714	-8,4	     42,6423	-10,0
     42,6789	     43,5816	-4,8	      42,758	-5,8
     42,6808	     43,5619	-4,8	     42,5308	-6,1
     42,6828	     43,5199	-4,4	     42,4252	-7,0
     42,6847	      43,371	-7,9	     42,3053	-6,3
     42,6867	     43,1565	-5,8	     42,1853	-4,8
     42,6887	     43,2237	-4,5	     42,0561	-3,8
     42,6906	     43,0809	-2,0	     42,0733	-2,3
     42,6926	     42,8333	-4,7	     41,8553	-4,7
     42,6945	     42,6931	-4,0	      41,599	-4,2
     42,6965	     42,6346	-3,5	     41,5462	-3,5
     42,6984	     42,5683	-2,3	     41,5848	-1,7
     42,7004	     42,4024	-0,3	     41,4797	-0,5
     42,7023	     42,3215	-3,5	     41,2718	-3,9
     42,7043	     42,2287	-1,3	     41,1619	-3,1
     42,7063	      42,094	-1,5	     41,2292	 0,8
     42,7082	     42,0853	 0,8	     41,1316	 0,2
     42,7102	     41,9158	 0,4	     40,8662	-0,9
     42,7121	     41,7973	-1,8	     40,7521	-0,4
     42,7141	     41,6703	-1,3	     40,7036	-0,6
      42,716	     41,6159	 1,8	      40,668	 0,9
      42,718	     41,4766	 3,1	      40,604	 1,6
     42,7199	      41,447	-0,7	     40,4523	 2,9
     42,7219	     41,3504	 0,9	     40,3886	-0,2
     42,7239	     41,3069	 3,7	     40,2875	-0,2
     42,7258	     41,1991	 3,3	     40,0772	 2,7
     42,7278	     40,9961	 3,1	     40,0655	 3,9
     42,7297	     40,7971	 1,0	     39,7976	 0,0
     42,7317	     40,5646	 3,8	     39,6989	 0,7
     42,7336	     40,4505	 3,8	     39,5467	-1,5
     42,7356	     40,4259	 3,6	     39,4878	 3,8
     42,7375	     40,2573	 2,4	     39,4505	 4,3
     42,7395	     40,1578	 1,0	     39,3142	 3,2
     42,7414	     39,9348	 5,0	     39,2814	 1,9
     42,7434	     39,8508	 5,2	     39,1654	 5,0
     42,7454	     39,7225	 5,4	     39,1934	 5,6
     42,7473	     39,6276	 3,8	     38,9733	 5,5
     42,7493	     39,5138	 4,6	      38,881	 3,8
     42,7512	     39,4607	 3,8	      38,867	 4,1
     42,7532	     39,4246	 5,8	     38,8578	 2,4
     42,7551	     39,3878	 7,0	     38,6932	 5,0
     42,7571	     39,1871	 3,9	     38,5289	 4,6
      42,759	     39,1113	 4,4	     38,3723	 4,8
      42,761	      39,114	 4,1	     38,3564	 3,2
      42,763	     39,0115	 6,6	     38,1444	 3,7
     42,7649	     38,8126	 7,3	     37,9081	 5,9
     42,7669	     38,6987	 5,1	     37,9032	 7,1
     42,7688	     38,5467	 5,0	     37,7557	 4,1
     42,7708	     38,4736	 7,1	     37,6924	 6,0
     42,7727	     38,3218	 8,0	     37,5948	 5,8
     42,7747	     38,2622	 6,4	      37,491	 8,0
     42,7766	     37,9918	 5,1	     37,2396	 7,3
     42,7786	     37,8601	 6,6	     37,0843	 7,8
     42,7805	     37,7627	 8,6	     36,9367	 6,6
     42,7825	     37,7486	10,8	     36,8161	 6,7
     42,7845	     37,5265	 5,3	     36,7355	 8,8
     42,7864	     37,4121	 7,3	     36,6662	 9,6
     42,7884	     37,3332	 8,5	     36,5629	 8,5
     42,7903	     37,1563	11,9	     36,4856	 8,7
     42,7923	     37,0947	12,4	     36,4196	 9,9
     42,7942	     37,0029	10,7	     36,3132	10,8
     42,7962	     36,7871	10,8	     36,2015	10,9
     42,7981	     36,7265	10,8	     36,0468	 8,8
     42,8001	     36,6567	10,8	     35,9911	 9,8
     42,8021	      36,608	11,7	     35,9244	10,3
      42,804	     36,4432	11,5	     35,7328	12,7
      42,806	     36,2909	10,2	     35,7484	10,1
     42,8079	     36,3071	12,4	     35,5052	10,3
     42,8099	     36,1433	12,7	     35,4814	 9,7
     42,8118	     35,9197	13,3	     35,2977	13,2
     42,8138	     35,8128	12,8	     35,2598	14,4
     42,8157	     35,8039	10,2	     35,0878	12,1
     42,8177	     35,6142	13,0	     35,0316	10,3
     42,8196	     35,5249	11,0	     34,9533	10,4
     42,8216	     35,3681	13,9	      34,912	10,9
     42,8236	     35,3249	13,7	     34,8307	13,0
     42,8255	     35,0713	 9,9	     34,6585	13,9
     42,8275	     35,1075	11,4	     34,4974	 9,7
     42,8294	      34,935	12,6	     34,3065	10,7
     42,8314	     34,7195	14,8	     34,2301	13,1
     42,8333	     34,6565	12,8	     34,1223	13,4
     42,8353	     34,5285	12,1	     33,9227	12,4
     42,8372	     34,4487	11,3	     33,8352	12,6
     42,8392	     34,3182	14,5	     33,7935	12,0
     42,8412	     34,2633	14,4	     33,6598	15,6
     42,8431	     34,1679	16,7	     33,6658	13,7
     42,8451	     34,0805	13,9	     33,5999	17,7
      42,847	     33,9158	14,9	     33,5433	17,1
      42,849	     33,8381	14,9	     33,3178	14,0
     42,8509	     33,7436	16,7	     33,2803	14,8
     42,8529	     33,6667	17,4	     33,2231	17,9
     42,8548	      33,536	18,8	     33,2457	15,8
     42,8568	     33,2872	15,0	     32,9256	15,6
     42,8587	     33,3225	14,9	     32,9024	16,5
     42,8607	     33,2454	19,3	     32,7701	14,4
     42,8627	     33,1854	17,8	     32,6061	13,7
     42,8646	     32,8347	15,9	     32,5095	17,5
     42,8666	      32,848	15,6	     32,4418	15,0
     42,8685	     32,6634	18,4	      32,362	14,8
     42,8705	     32,6306	17,1	     32,3401	14,8
     42,8724	      32,554	17,8	     32,1911	14,9
     42,8744	     32,4427	18,0	       31,98	17,3
     42,8763	     32,3717	16,5	     31,8989	16,9
     42,8783	     32,3092	16,5	     31,7967	19,1
     42,8803	      32,259	18,3	     31,5861	15,3
     42,8822	       32,14	18,7	     31,4642	16,7
     42,8842	     32,0103	17,0	     31,4576	19,7
     42,8861	     31,9136	18,7	     31,4366	19,4
     42,8881	     31,6638	18,9	     31,3991	19,9
       42,89	     31,6751	18,5	      31,366	20,6
      42,892	     31,6685	20,9	     31,1975	18,9
     42,8939	     31,5368	21,4	     31,1245	18,6
     42,8959	     31,3825	20,0	     30,9807	22,2
     42,8979	     31,1975	19,9	      30,848	20,4
     42,8998	     31,2359	19,8	     30,6774	18,4
     42,9018	     31,0791	19,9	      30,636	18,2
     42,9037	     30,9216	22,4	     30,5391	17,8
     42,9057	     30,7814	24,3	     30,4364	18,1
     42,9076	      30,626	21,3	     30,3123	20,3
     42,9096	     30,5197	19,4	     30,2602	20,4
     42,9115	     30,5411	17,8	     30,0882	18,2
     42,9135	     30,4215	21,8	     29,9862	18,3
     42,9154	     30,4393	20,9	     29,9889	20,3
     42,9174	     30,2384	20,9	     29,8408	22,0
     42,9194	     30,0497	17,7	     29,8007	22,9
     42,9213	     30,0771	17,9	     29,7185	21,7
     42,9233	     30,0278	21,2	     29,6372	22,2
     42,9252	     29,9931	21,6	      29,467	21,2
     42,9272	     29,8184	23,3	     29,4633	21,3
     42,9291	     29,7407	21,6	     29,4437	22,9
     42,9311	     29,5799	24,3	     29,3452	23,3
      42,933	     29,4887	21,7	     29,2263	21,6
      42,935	     29,3015	23,6	     29,1606	19,4
      42,937	     29,2505	25,5	     28,9432	20,5
     42,9389	     29,0744	26,7	     28,7766	21,2
     42,9409	     28,9693	23,4	     28,7124	22,4
     42,9428	     28,9357	21,8	     28,7484	22,1
     42,9448	     29,0089	24,3	     28,5831	19,6
     42,9467	     28,8311	23,2	     28,5033	20,5
     42,9487	     28,6393	26,6	     28,4534	21,9
     42,9506	     28,6284	23,5	     28,3579	23,6
     42,9526	     28,6048	21,4	     28,3765	24,1
     42,9545	     28,5901	19,9	     28,1856	24,6
     42,9565	     28,5555	22,5	     28,0425	23,3
     42,9585	     28,4276	24,2	     28,0204	21,9
     42,9604	     28,2622	25,2	     27,7934	23,9
     42,9624	     28,0814	24,5	     27,7195	24,9
     42,9643	      27,915	24,7	     27,6744	25,7
     42,9663	     27,8271	22,9	     27,5742	26,3
     42,9682	     27,7281	25,6	     27,5062	22,7
     42,9702	     27,5646	28,3	     27,5006	23,0
     42,9721	     27,4953	26,5	     27,3447	24,6
     42,9741	     27,5389	25,0	     27,3085	24,3
     42,9761	     27,4562	25,0	     27,2819	25,6
      42,978	     27,4316	25,0	     27,2165	24,4
       42,98	     27,3701	23,4	     27,0982	22,6
     42,9819	      27,342	27,7	     26,9897	22,7
     42,9839	     27,2442	27,5	     26,9983	24,2
     42,9858	     27,0491	24,3	     26,8606	27,6
     42,9878	     26,9283	26,1	     26,8251	27,6
     42,9897	     26,7661	23,9	     26,6251	26,0
     42,9917	     26,8138	25,1	       26,58	26,7
     42,9936	     26,8138	26,6	     26,4093	25,4
     42,9956	     26,7486	30,8	     26,4181	25,1
     42,9976	     26,6239	24,9	     26,4311	28,7
     42,9995	     26,4359	26,8	     26,4106	27,2
     43,0015	     26,4998	27,2	      26,297	25,7
     43,0034	       26,39	27,5	     26,1326	25,5
     43,0054	     26,2497	30,5	       26,02	23,1
     43,0073	     26,1865	29,2	     25,9955	25,5
     43,0093	     26,0242	27,6	     25,9514	26,8
     43,0112	     25,8591	26,3	     25,7544	28,0
     43,0132	      25,957	24,3	      25,671	27,2
     43,0152	     25,7239	27,5	     25,6459	27,2
     43,0171	     25,8603	27,1	     25,4651	25,1
     43,0191	     25,6836	28,5	     25,4665	27,4
      43,021	     25,6613	26,3	     25,3785	31,1
      43,023	     25,6265	27,0	     25,2764	31,1
     43,0249	     25,5245	28,4	      25,157	29,3
     43,0269	     25,4525	28,7	     25,1554	28,0
     43,0288	     25,0853	29,4	     25,0684	27,6
     43,0308	     24,9922	30,0	     25,0465	26,8
     43,0327	     24,9272	29,9	     24,9701	27,0
     43,0347	     24,8681	28,8	     25,1238	29,7
     43,0367	       24,77	27,7	     25,0042	29,5
     43,0386	     24,7597	29,9	     24,7909	26,5
     43,0406	      24,787	28,7	     24,6385	27,8
     43,0425	     24,7294	29,9	     24,5546	27,9
     43,0445	     24,7084	29,6	      24,451	29,1
     43,0464	      24,486	26,5	     24,4985	30,0
     43,0484	     24,5599	27,5	     24,4985	32,3
     43,0503	     24,5143	29,2	     24,3355	27,1
     43,0523	     24,4551	29,2	     24,1961	28,4
     43,0543	      24,397	30,6	     24,1384	29,8
     43,0562	      24,257	31,8	     24,1155	27,9
     43,0582	     24,2084	31,8	     24,1795	30,0
     43,0601	     24,0535	31,2	     24,1342	28,4
     43,0621	     23,9583	28,4	     24,0731	27,9
      43,064	     23,8942	31,0	     23,9164	28,8
      43,066	     23,8215	29,0	     23,6501	26,7
     43,0679	     23,7282	31,4	     23,4617	28,7
     43,0699	     23,7721	31,8	     23,4985	30,4
     43,0718	     23,5082	28,0	     23,4291	32,3
     43,0738	     23,4691	29,7	     23,5041	33,8
     43,0758	      23,458	29,9	     23,4013	29,5
     43,0777	     23,5712	30,4	       23,21	31,1
     43,0797	     23,5179	30,1	     23,3278	30,9
     43,0816	      23,495	33,2	     23,3676	32,0
     43,0836	     23,3282	30,9	     23,2106	31,3
     43,0855	     23,1972	31,7	     23,2019	32,0
     43,0875	     23,0991	32,3	     23,2942	30,0
     43,0894	     22,9896	29,5	     23,1432	29,7
     43,0914	     23,0434	29,5	     22,9849	29,6
     43,0934	     22,9998	32,4	      22,882	30,3
     43,0953	     22,8715	31,1	     22,8517	31,3
     43,0973	     22,7053	31,1	     22,8519	32,5
     43,0992	     22,6813	29,2	     22,7305	33,0
     43,1012	      22,703	30,5	       22,72	33,5
     43,1031	     22,5817	31,6	     22,5895	30,9
     43,1051	     22,6628	33,9	     22,5856	27,1
      43,107	     22,5369	35,2	     22,4776	31,6
      43,109	       22,46	33,2	     22,3596	30,4
     43,1109	     22,3393	32,9	     22,2853	32,1
     43,1129	     22,1365	31,9	     22,1703	32,5
     43,1149	     22,2577	31,3	     22,0743	29,6
     43,1168	     22,2473	33,2	     22,0461	30,6
     43,1188	     22,2113	32,9	     21,9895	31,0
     43,1207	     22,0147	32,6	     21,8641	34,1
     43,1227	     22,0022	33,3	     21,8772	33,1
     43,1246	     21,8398	30,4	       21,73	34,7
     43,1266	     21,8153	31,9	     21,7328	33,4
     43,1285	     21,7771	34,0	     21,7489	32,2
     43,1305	     21,5777	34,2	     21,7447	30,5
     43,1325	     21,5493	36,9	     21,6865	32,8
     43,1344	     21,5403	35,2	     21,6225	31,1
     43,1364	     21,5063	34,0	     21,6019	32,6
     43,1383	     21,4039	32,6	      21,468	34,0
     43,1403	      21,336	30,7	     21,3437	33,0
     43,1422	     21,3088	31,2	     21,2684	34,0
     43,1442	     21,3806	32,9	     21,2286	33,0
     43,1461	     21,2882	34,6	     21,2431	33,1
     43,1481	     21,1682	33,5	     21,2048	35,8
       43,15	     21,0665	34,6	     21,1857	32,8
      43,152	     21,0296	34,9	     21,0701	33,8
      43,154	     20,9087	33,6	     21,0164	33,5
     43,1559	     20,8331	36,4	     20,9188	34,8
     43,1579	     20,7482	34,2	     20,8084	30,9
     43,1598	     20,8886	35,3	     20,7226	32,7
     43,1618	     20,9071	35,1	     20,6399	34,8
     43,1637	     20,8336	33,3	     20,6048	36,2
     43,1657	     20,7544	34,2	     20,7707	37,0
     43,1676	     20,6106	32,9	     20,6885	35,7
     43,1696	     20,5852	33,2	     20,6757	36,3
     43,1716	     20,5343	35,8	     20,6422	33,5
     43,1735	     20,4969	36,5	     20,5043	32,5
     43,1755	     20,3617	37,8	     20,3858	33,3
     43,1774	     20,2725	36,3	     20,2425	34,4
     43,1794	     20,1453	34,9	     20,0816	33,4
     43,1813	     20,0947	32,8	     19,9083	37,0
     43,1833	     20,0971	33,7	     20,0585	38,1
     43,1852	     20,0605	33,8	       20,03	34,8
     43,1872	     19,9202	36,2	     20,0466	34,0
     43,1891	     19,8972	36,7	     20,0866	35,3
     43,1911	      19,918	36,8	     20,0141	38,3
     43,1931	     19,9933	35,0	     20,0225	36,3
      43,195	     19,9251	37,1	     19,9338	34,5
      43,197	      19,708	34,9	     19,8088	32,9
     43,1989	     19,7089	32,5	      19,625	35,0
     43,2009	     19,7531	36,6	     19,5756	33,7
     43,2028	     19,6561	34,1	     19,6236	35,2
     43,2048	     19,5632	35,6	     19,5994	36,4
     43,2067	     19,5999	35,5	      19,623	36,0
     43,2087	     19,4994	34,9	     19,5456	38,4
     43,2107	     19,3887	35,8	     19,5938	36,2
     43,2126	     19,4376	36,1	     19,4608	34,6
     43,2146	     19,3006	36,6	     19,4656	35,0
     43,2165	     19,2778	37,9	      19,408	34,1
     43,2185	     19,1691	36,1	     19,3608	34,0
     43,2204	      19,008	37,7	     19,2602	34,0
     43,2224	     19,1247	36,6	     19,0972	36,9
     43,2243	     18,9632	34,2	      18,957	37,6
     43,2263	     19,0804	33,8	     18,9947	38,5
     43,2282	     19,0885	35,1	      19,009	36,9
     43,2302	      19,057	36,9	     19,0644	35,8
     43,2322	     18,9428	38,5	     18,8702	34,1
     43,2341	     19,0295	39,8	     18,7886	35,2
     43,2361	     18,8316	37,7	     18,7306	35,0
      43,238	     18,8754	37,6	     18,8644	36,2
       43,24	     18,6622	35,6	     18,8094	38,8
     43,2419	     18,7428	34,9	     18,7453	37,7
     43,2439	     18,6917	35,6	     18,7066	38,5
     43,2458	     18,6311	36,3	     18,5714	37,8
     43,2478	     18,5462	38,0	     18,6725	36,9
     43,2498	     18,5605	38,7	     18,4737	34,8
     43,2517	     18,4624	39,9	     18,3352	33,5
     43,2537	     18,3297	38,3	     18,4511	37,5
     43,2556	     18,2714	38,1	     18,3494	36,9
     43,2576	     18,2612	35,2	     18,4853	37,2
     43,2595	     18,2682	35,2	     18,3438	38,3
     43,2615	      18,277	35,8	     18,1246	36,5
     43,2634	     18,2183	37,2	     18,2168	37,5
     43,2654	     18,1389	38,5	     18,1656	36,4
     43,2673	     17,9597	40,4	     18,0861	35,3
     43,2693	     17,9347	41,8	     18,1103	37,6
     43,2713	     17,7958	39,0	     18,0119	37,8
     43,2732	     17,8531	35,4	     17,9618	37,9
     43,2752	     17,8464	37,3	     17,8762	38,3
     43,2771	     17,7996	36,2	     17,9237	40,4
     43,2791	     17,8094	38,0	     17,8454	37,8
      43,281	     17,8633	37,1	     17,8835	37,9
      43,283	     17,8651	39,2	     17,8193	36,6
     43,2849	      17,833	40,7	     17,7576	35,6
     43,2869	     17,7127	37,5	     17,6887	37,0
     43,2889	     17,6133	37,5	     17,5386	37,2
     43,2908	     17,6198	38,6	     17,5337	37,5
     43,2928	     17,5719	35,1	     17,5115	40,1
     43,2947	     17,5533	35,7	     17,4612	40,3
     43,2967	     17,5233	38,4	     17,5232	37,7
     43,2986	     17,4403	39,4	     17,4813	39,4
     43,3006	     17,4072	40,8	     17,4746	35,5
     43,3025	      17,222	40,5	     17,4156	38,3
     43,3045	     17,1758	38,6	     17,3275	37,4
     43,3064	     17,1149	37,5	     17,3365	38,4
     43,3084	     17,1093	38,5	     17,2401	39,5
     43,3104	     17,0201	36,8	     17,1094	37,5
     43,3123	     17,0647	37,5	     17,1107	39,0
     43,3143	     17,0995	38,7	     17,1005	37,6
     43,3162	     17,1973	40,0	     17,1735	37,8
     43,3182	     17,0328	42,6	     17,1513	38,1
     43,3201	     16,9666	39,5	     17,1816	40,3
     43,3221	     16,8321	42,1	     16,9915	38,9
      43,324	     16,7379	38,5	     16,8175	38,5
      43,326	     16,7785	36,8	     16,7374	40,2
      43,328	     16,7487	35,9	     16,6536	37,3
     43,3299	     16,8412	38,6	     16,6017	39,6
     43,3319	     16,7709	39,7	     16,6953	37,7
     43,3338	     16,7118	41,7	     16,6377	39,1
     43,3358	      16,503	40,8	     16,6255	37,9
     43,3377	     16,4238	40,3	     16,7099	40,2
     43,3397	     16,4269	40,1	     16,5939	39,8
     43,3416	     16,5498	38,7	     16,5168	39,8
     43,3436	     16,5946	36,9	      16,544	42,4
     43,3456	     16,5864	38,8	     16,4781	40,5
     43,3475	      16,491	40,1	     16,6018	39,5
     43,3495	     16,3214	41,3	     16,5078	39,0
     43,3514	     16,1353	40,1	     16,3066	38,1
     43,3534	     16,2028	39,8	     16,2623	38,3
     43,3553	      16,341	40,7	     16,2135	38,6
     43,3573	     16,2637	39,1	     16,1845	39,6
     43,3592	     16,3227	40,6	     16,1384	41,5
     43,3612	     16,1686	40,3	     16,1185	39,7
     43,3631	     16,1799	39,6	      16,245	41,4
     43,3651	     16,1658	39,4	     16,0632	38,6
     43,3671	     16,0844	38,8	     15,9406	36,2
      43,369	      16,001	42,6	      15,794	38,1
      43,371	     15,9017	41,2	     15,8995	38,0
     43,3729	     15,7858	42,0	     15,9008	40,2
     43,3749	     15,7818	40,0	     15,9571	43,4
     43,3768	     15,7693	38,1	     15,9702	42,9
     43,3788	     15,9606	40,6	     15,8484	42,2
     43,3807	     15,8608	39,2	     15,8577	41,4
     43,3827	     15,7347	41,7	     15,8217	39,3
     43,3847	     15,7453	42,7	      15,843	39,8
     43,3866	     15,5766	39,9	     15,6464	37,0
     43,3886	     15,5677	40,7	     15,4124	38,6
     43,3905	     15,6507	39,7	     15,4921	41,3
     43,3925	     15,6959	39,7	     15,5489	40,3
     43,3944	     15,7044	40,9	     15,5869	44,0
     43,3964	     15,6215	39,6	     15,6241	42,8
     43,3983	     15,4511	42,2	      15,607	40,1
     43,4003	     15,3463	40,3	     15,4784	40,5
     43,4022	     15,2732	40,1	     15,3167	38,1
     43,4042	      15,364	38,6	     15,3432	41,6
     43,4062	     15,4184	40,3	     15,2781	40,8
     43,4081	     15,3487	40,9	     15,3026	39,5
     43,4101	     15,3679	42,1	     15,2856	42,2
      43,412	     15,2265	44,8	     15,2521	39,2
      43,414	     15,0105	43,7	     15,2725	40,0
     43,4159	     15,0978	40,5	     15,2302	42,7
     43,4179	     15,1759	39,8	     15,1588	40,7
     43,4198	      15,156	40,1	     15,0345	42,5
     43,4218	     15,0921	39,1	     14,8653	40,7
     43,4238	     15,0224	41,2	     14,9887	41,2
     43,4257	     15,0154	42,3	          15	40,0
     43,4277	     14,9598	42,3	     14,9593	39,7
     43,4296	     14,9848	42,9	     14,9149	39,8
     43,4316	     14,9851	41,7	     14,8349	41,4
     43,4335	     14,9124	40,8	     14,8343	43,1
     43,4355	      14,921	42,0	     14,9669	43,5
     43,4374	     14,7139	40,6	     14,9598	42,3
     43,4394	     14,7824	42,2	     14,9609	41,5
     43,4413	      14,717	41,4	     14,8742	41,5
     43,4433	     14,6893	41,3	      14,653	38,6
     43,4453	     14,6959	41,7	     14,5144	41,8
     43,4472	     14,6861	40,9	     14,5153	40,5
     43,4492	     14,6418	41,0	      14,529	41,6
     43,4511	     14,6466	43,5	     14,5602	41,7
     43,4531	     14,6932	45,8	     14,6265	40,5
      43,455	     14,6453	44,7	     14,6907	41,5
      43,457	     14,5286	44,5	     14,5948	43,5
     43,4589	     14,3254	42,1	     14,4454	41,8
     43,4609	     14,3657	41,0	     14,3531	41,6
     43,4629	     14,3295	40,5	     14,3419	48,0
     43,4648	     14,3984	41,9	     14,2894	43,2
     43,4668	     14,4009	44,0	      14,273	40,5
     43,4687	     14,3558	44,0	     14,3295	39,2
     43,4707	     14,3803	41,7	     14,3395	41,4
     43,4726	     14,4354	43,6	     14,2573	39,6
     43,4746	     14,3843	43,4	     14,2675	41,4
     43,4765	     14,2767	42,8	     14,2686	42,9
     43,4785	     14,2364	45,0	     14,1643	43,6
     43,4804	     14,1975	42,6	     14,1161	41,8
     43,4824	     14,0849	43,0	      14,069	44,1
     43,4844	     14,0394	42,4	     14,1648	42,6
     43,4863	     13,9927	40,4	      14,121	42,6
     43,4883	      13,993	40,1	     14,0043	42,6
     43,4902	     14,0817	41,7	     13,9993	42,1
     43,4922	     14,0163	43,1	     13,7981	41,2
     43,4941	     13,9906	43,5	     13,7568	41,3
     43,4961	     13,9717	46,0	     13,8163	41,5
      43,498	     13,8653	43,3	     13,9216	41,2
        43,5	     13,9617	42,3	     13,8171	42,9

