X-Data [Hz]	Piezo (M - Filtered) [mV]	Phase [Deg]	Piezo (M - Filtered) [mV]	Phase [Deg]	
	002: [07-09-24 10:14]		003: [07-09-24 10:18]	
        40,5	     784,397	78,9	     883,726	78,3
     40,5029	     823,467	78,4	     873,516	78,3
     40,5059	     845,651	77,7	      878,45	77,6
     40,5088	      859,35	77,7	     878,388	78,3
     40,5117	     865,634	77,7	     878,781	78,3
     40,5147	     866,642	78,3	     883,112	78,3
     40,5176	      874,32	77,8	     882,549	78,0
     40,5205	     871,863	78,7	     883,919	77,5
     40,5235	     876,986	77,7	     888,696	77,9
     40,5264	     880,845	77,9	     886,625	77,6
     40,5293	     880,603	77,9	     891,047	77,5
     40,5323	      885,89	77,8	      887,24	78,3
     40,5352	       881,5	78,4	     894,025	77,7
     40,5381	     886,963	77,9	     893,006	77,7
     40,5411	     884,101	78,1	     893,852	77,7
      40,544	     890,427	77,7	     898,183	77,6
     40,5469	     895,146	77,8	     897,789	77,9
     40,5499	     889,201	77,9	      898,29	78,1
     40,5528	     896,453	78,1	     900,468	78,2
     40,5557	      891,16	78,4	     900,862	78,4
     40,5587	     896,664	78,4	      902,58	77,9
     40,5616	     895,432	78,5	     903,813	77,7
     40,5645	     902,082	77,8	      906,32	78,1
     40,5674	     900,027	78,0	     907,915	77,6
     40,5704	     902,047	78,6	     904,149	78,4
     40,5733	     909,009	78,1	     911,542	78,2
     40,5762	     904,527	78,7	     910,483	78,0
     40,5792	     907,293	78,0	      914,56	78,5
     40,5821	     910,493	78,0	     914,411	78,1
      40,585	     910,031	78,0	     919,751	78,0
      40,588	     913,668	78,0	     916,462	78,3
     40,5909	     911,906	78,1	     923,095	77,9
     40,5938	     913,199	78,4	     918,458	78,2
     40,5968	     917,554	78,5	     922,802	78,7
     40,5997	     916,269	78,0	     921,841	77,9
     40,6026	      922,55	78,1	     923,641	78,9
     40,6056	     921,419	78,2	     927,864	78,3
     40,6085	     925,249	78,6	     930,851	78,2
     40,6114	     921,218	78,4	      929,66	78,5
     40,6144	     926,683	78,2	     933,926	78,0
     40,6173	     925,156	79,0	     931,977	78,6
     40,6202	     929,232	78,1	     933,514	78,8
     40,6232	     931,152	78,2	      936,19	78,3
     40,6261	     930,102	78,7	     934,746	79,0
      40,629	     936,234	78,1	     939,397	78,5
      40,632	     931,559	78,3	     939,684	78,6
     40,6349	     936,251	78,8	     943,594	78,2
     40,6378	     938,347	78,6	     944,053	78,8
     40,6408	     943,543	77,8	     946,668	78,3
     40,6437	     936,986	78,7	     948,023	78,4
     40,6466	     942,042	78,2	     948,645	78,8
     40,6496	     945,241	78,3	     948,649	78,9
     40,6525	      946,44	78,8	     949,989	78,8
     40,6554	     947,866	78,5	     950,662	78,5
     40,6584	     948,161	78,7	     957,858	78,1
     40,6613	      951,76	78,9	     954,295	78,6
     40,6642	     950,275	78,4	     960,582	78,6
     40,6672	      956,21	78,1	     958,905	78,5
     40,6701	     952,563	78,6	     963,647	79,0
      40,673	     958,506	78,7	     963,145	78,6
      40,676	     959,268	78,7	     963,716	79,1
     40,6789	     955,409	78,5	     965,066	79,0
     40,6818	      962,44	78,5	     966,472	78,8
     40,6847	     961,165	78,7	      970,61	79,3
     40,6877	     964,536	78,6	     966,922	79,0
     40,6906	     965,933	78,5	     973,413	78,3
     40,6936	     965,552	79,0	     975,843	78,5
     40,6965	     970,323	78,9	     976,389	78,8
     40,6994	     972,649	78,2	     979,878	78,6
     40,7023	     975,287	78,3	     981,993	79,0
     40,7053	     972,054	78,6	      980,27	79,3
     40,7082	     980,787	78,5	     983,743	78,7
     40,7111	     975,396	78,5	     980,755	79,2
     40,7141	     979,248	78,8	     988,054	79,3
      40,717	      977,39	78,7	      988,28	78,7
     40,7199	     982,542	79,0	     991,728	78,2
     40,7229	     983,518	78,7	     991,915	79,0
     40,7258	     986,739	78,5	     997,101	78,5
     40,7287	     989,115	78,4	     996,171	78,6
     40,7317	     989,967	78,8	     997,687	79,0
     40,7346	     990,986	78,5	     1000,43	78,4
     40,7375	     993,006	78,4	     1003,47	78,7
     40,7405	     989,986	79,3	     1000,29	79,3
     40,7434	     997,642	79,5	     1006,46	79,0
     40,7463	     994,716	78,5	     1009,27	78,9
     40,7493	     998,776	79,3	     1008,15	79,1
     40,7522	      998,76	79,4	     1010,68	79,1
     40,7551	     1005,53	78,9	     1012,64	79,1
     40,7581	     1003,83	79,7	     1011,18	79,1
      40,761	     1005,49	79,3	     1015,25	79,8
     40,7639	     1010,17	79,1	     1019,39	78,9
     40,7669	     1011,55	79,0	     1017,74	79,5
     40,7698	     1008,75	79,2	     1018,59	79,8
     40,7727	     1017,04	79,2	     1022,48	79,4
     40,7757	     1017,72	78,7	     1027,37	79,1
     40,7786	      1015,4	79,4	     1022,31	79,3
     40,7815	      1018,8	78,8	      1030,4	79,1
     40,7845	     1020,07	79,2	     1028,52	79,6
     40,7874	     1024,16	79,5	     1030,07	79,7
     40,7903	     1022,59	79,1	     1034,24	79,6
     40,7933	     1030,94	79,0	     1032,98	79,9
     40,7962	     1026,61	79,0	     1038,51	79,7
     40,7991	     1030,06	79,3	      1039,7	79,5
     40,8021	     1035,16	79,0	      1043,7	79,3
      40,805	     1034,57	79,3	     1041,46	79,3
     40,8079	     1033,32	79,1	     1047,25	79,5
     40,8109	     1037,28	79,5	      1046,2	79,1
     40,8138	     1042,74	79,2	     1048,92	79,7
     40,8167	     1040,23	79,3	     1050,49	79,8
     40,8196	      1044,3	79,3	     1051,95	79,5
     40,8226	     1049,59	79,4	      1058,7	79,4
     40,8255	     1046,17	79,6	     1057,68	79,6
     40,8284	     1049,42	79,5	      1061,1	79,6
     40,8314	     1051,71	79,2	     1061,04	79,5
     40,8343	     1052,54	79,6	     1060,63	80,0
     40,8372	     1054,64	79,7	     1066,09	79,5
     40,8402	     1058,47	79,2	     1068,58	79,7
     40,8431	     1064,99	78,9	     1068,43	80,1
      40,846	     1059,63	79,5	      1067,9	80,4
      40,849	     1065,14	79,3	     1069,95	80,0
     40,8519	     1067,01	78,9	     1076,31	80,4
     40,8548	      1068,6	79,4	      1075,1	80,2
     40,8578	     1069,33	79,4	      1080,9	79,8
     40,8607	     1070,89	79,4	     1084,75	79,5
     40,8636	     1076,43	79,2	     1084,76	79,6
     40,8666	     1073,38	79,9	     1085,12	80,3
     40,8695	      1078,8	79,5	     1090,39	79,6
     40,8724	     1081,38	79,7	     1088,11	79,8
     40,8754	     1079,86	79,8	     1090,52	80,3
     40,8783	     1085,55	80,0	     1094,64	80,5
     40,8812	     1087,36	79,7	     1099,53	80,0
     40,8842	     1086,66	80,0	     1097,35	80,8
     40,8871	     1091,07	79,9	     1099,66	80,5
       40,89	     1096,25	79,7	     1104,42	80,2
      40,893	     1095,36	79,3	     1106,78	80,1
     40,8959	     1099,64	79,7	     1106,18	80,3
     40,8988	     1101,84	79,4	     1109,02	80,1
     40,9018	     1103,67	79,3	     1111,54	79,9
     40,9047	     1104,89	79,5	     1115,44	80,3
     40,9076	     1104,27	80,2	     1112,59	80,4
     40,9106	     1110,66	79,6	     1120,79	80,2
     40,9135	     1111,43	80,0	     1122,99	80,2
     40,9164	      1111,8	80,3	     1120,39	80,2
     40,9194	     1113,36	80,4	     1126,15	80,3
     40,9223	      1115,2	80,0	     1127,77	80,2
     40,9252	     1117,96	80,3	      1130,1	80,4
     40,9282	     1119,22	80,3	     1128,83	80,5
     40,9311	     1125,32	80,3	     1139,57	80,4
      40,934	     1126,84	79,8	     1137,77	80,5
      40,937	     1127,63	79,9	     1140,42	80,3
     40,9399	     1131,81	80,0	     1138,15	80,5
     40,9428	     1135,51	79,8	     1146,69	80,6
     40,9457	     1133,95	79,9	     1144,32	80,4
     40,9487	     1135,08	80,3	     1150,92	80,6
     40,9516	     1142,57	79,8	     1147,25	81,1
     40,9545	     1144,78	80,1	     1154,77	80,5
     40,9575	     1143,66	80,4	     1154,56	80,9
     40,9604	     1145,37	80,6	     1154,78	81,2
     40,9633	     1146,97	80,6	     1162,86	81,0
     40,9663	     1151,84	80,6	     1162,96	80,8
     40,9692	     1151,45	80,7	     1164,79	81,2
     40,9721	     1155,25	80,5	     1168,02	81,2
     40,9751	     1161,89	80,3	     1167,52	80,4
      40,978	     1161,15	80,2	     1176,01	80,5
     40,9809	     1158,74	80,7	     1173,95	80,9
     40,9839	     1168,23	80,5	     1180,65	81,0
     40,9868	     1169,58	80,3	     1183,08	80,7
     40,9897	     1169,72	80,6	     1184,13	81,0
     40,9927	     1173,47	80,7	     1183,15	81,1
     40,9956	     1176,38	80,6	     1189,14	81,2
     40,9985	      1178,8	80,7	     1189,25	81,3
     41,0015	      1183,5	80,5	      1191,7	81,3
     41,0044	     1182,35	80,4	     1194,05	81,3
     41,0073	     1181,09	80,9	     1196,61	81,1
     41,0103	     1191,39	80,6	     1201,37	80,9
     41,0132	     1193,47	80,4	      1202,6	81,2
     41,0161	     1190,34	80,9	     1206,98	81,2
     41,0191	     1192,67	81,0	     1208,62	81,7
      41,022	     1199,08	80,6	     1208,82	81,5
     41,0249	     1203,19	81,0	     1214,65	81,2
     41,0279	     1201,04	81,2	     1213,97	81,6
     41,0308	     1206,89	81,0	     1221,86	81,6
     41,0337	      1211,8	80,6	      1222,7	81,3
     41,0367	     1214,08	80,5	        1222	81,9
     41,0396	     1216,37	80,8	     1226,36	81,7
     41,0425	     1214,71	80,9	     1228,23	81,5
     41,0455	      1223,6	81,1	     1235,73	81,2
     41,0484	     1222,59	80,9	     1240,64	81,5
     41,0513	     1221,35	81,3	     1233,84	81,7
     41,0543	     1228,09	81,1	     1244,66	81,6
     41,0572	     1235,94	81,2	      1244,5	81,9
     41,0601	     1233,59	80,4	     1248,59	81,6
      41,063	     1233,11	81,1	     1246,99	82,0
      41,066	     1236,79	81,2	     1254,69	81,6
     41,0689	     1241,26	81,3	     1257,63	81,4
     41,0718	     1240,99	80,9	      1258,1	81,5
     41,0748	     1244,69	81,6	     1264,86	82,0
     41,0777	     1247,61	81,8	     1266,95	81,8
     41,0806	     1254,73	81,3	     1266,07	82,0
     41,0836	     1254,38	81,4	     1272,32	81,7
     41,0865	     1257,73	81,7	     1276,27	81,9
     41,0894	     1260,79	81,3	     1275,81	82,3
     41,0924	     1264,72	81,7	      1279,9	81,9
     41,0953	     1270,49	81,5	     1283,19	81,8
     41,0982	     1268,66	81,6	     1287,08	82,1
     41,1012	     1271,37	81,7	     1290,13	81,7
     41,1041	     1276,71	81,8	     1295,05	82,1
      41,107	     1279,77	81,6	     1292,77	82,2
       41,11	     1283,57	81,2	     1298,47	82,4
     41,1129	     1285,51	81,8	     1298,78	82,4
     41,1158	      1288,5	81,8	     1303,02	82,0
     41,1188	     1291,56	81,6	     1309,15	81,9
     41,1217	     1293,43	81,8	     1314,17	82,0
     41,1246	     1292,32	81,9	     1311,46	82,4
     41,1276	     1302,14	82,0	     1317,17	82,6
     41,1305	     1302,49	81,9	     1320,18	82,6
     41,1334	     1307,53	81,7	     1324,58	82,2
     41,1364	     1309,77	82,4	     1327,09	82,2
     41,1393	     1312,48	82,0	     1328,92	83,0
     41,1422	     1314,92	81,9	     1333,99	82,4
     41,1452	     1319,81	82,0	     1337,66	82,3
     41,1481	     1324,82	82,1	     1340,79	82,8
      41,151	     1322,59	82,2	     1342,77	82,8
      41,154	     1326,99	82,4	     1346,51	82,8
     41,1569	     1334,12	82,1	     1349,23	82,8
     41,1598	      1340,5	81,7	     1356,56	82,7
     41,1628	     1339,53	82,1	     1358,34	82,6
     41,1657	     1336,86	82,2	     1356,95	83,0
     41,1686	     1344,23	81,9	     1364,56	82,6
     41,1716	     1348,03	82,3	     1367,44	82,7
     41,1745	     1351,91	82,4	     1370,76	83,2
     41,1774	     1358,93	82,2	     1373,12	83,2
     41,1804	     1356,83	82,4	     1370,37	82,9
     41,1833	     1365,99	82,3	     1378,84	82,9
     41,1862	     1366,78	82,1	     1388,87	82,7
     41,1891	     1366,99	82,4	     1389,82	82,9
     41,1921	     1370,33	82,8	     1390,38	83,4
      41,195	     1374,69	82,8	     1396,24	83,2
     41,1979	     1379,98	82,6	     1399,39	83,4
     41,2009	     1383,16	82,8	     1402,49	83,0
     41,2038	     1385,56	82,5	     1406,83	82,9
     41,2067	     1388,37	82,5	     1406,21	83,1
     41,2097	     1393,24	82,6	     1413,08	83,4
     41,2126	     1399,76	82,8	     1412,63	83,6
     41,2155	     1404,77	83,1	     1420,58	83,5
     41,2185	     1406,51	82,8	     1426,44	83,4
     41,2214	      1408,9	82,9	     1423,41	84,1
     41,2243	      1411,8	82,7	     1427,75	83,6
     41,2273	     1419,79	82,8	      1433,2	83,3
     41,2302	     1421,61	83,0	     1439,18	83,8
     41,2331	     1419,19	83,1	     1441,34	83,7
     41,2361	     1422,42	83,4	     1445,22	84,2
      41,239	      1431,1	83,3	     1447,26	84,2
     41,2419	     1433,12	83,0	     1453,38	83,6
     41,2449	     1439,01	83,0	     1459,39	83,7
     41,2478	     1437,15	83,2	     1462,93	83,7
     41,2507	     1444,36	83,4	     1465,87	84,1
     41,2537	     1449,24	83,3	     1467,43	84,3
     41,2566	     1451,57	83,2	     1477,88	83,9
     41,2595	     1459,09	83,4	     1476,59	84,1
     41,2625	     1462,96	83,3	     1482,64	83,9
     41,2654	     1463,69	83,5	     1489,15	84,0
     41,2683	     1464,87	83,8	     1488,12	84,8
     41,2713	     1471,43	83,9	     1496,01	84,1
     41,2742	     1477,57	83,9	     1500,42	84,2
     41,2771	     1483,91	83,7	     1504,17	84,4
     41,2801	     1480,47	83,4	     1507,97	84,3
      41,283	     1490,91	83,6	     1512,67	84,7
     41,2859	     1494,56	83,7	     1516,27	84,3
     41,2889	     1499,08	83,9	     1524,39	84,5
     41,2918	     1497,95	84,1	     1530,51	84,6
     41,2947	     1503,15	84,0	     1530,58	84,5
     41,2977	     1506,06	83,9	     1530,13	84,8
     41,3006	     1512,85	84,3	     1537,31	84,5
     41,3035	     1520,22	84,2	     1544,83	84,7
     41,3064	     1520,96	84,2	     1546,62	84,9
     41,3094	     1526,32	84,5	     1550,92	84,9
     41,3123	     1530,46	84,1	     1555,43	85,1
     41,3153	     1531,39	84,4	     1556,84	85,1
     41,3182	     1544,78	83,9	     1563,44	84,8
     41,3211	     1547,03	84,2	     1570,22	85,4
      41,324	     1548,07	84,5	     1577,41	85,0
      41,327	        1553	84,6	     1580,47	85,3
     41,3299	     1558,52	84,4	     1581,73	85,7
     41,3328	     1565,76	84,3	      1586,1	85,2
     41,3358	     1567,83	84,3	     1596,62	85,1
     41,3387	     1575,33	84,7	     1602,56	84,9
     41,3416	      1581,3	84,7	     1605,61	85,6
     41,3446	     1581,22	84,6	      1604,2	85,6
     41,3475	     1587,13	84,7	      1612,9	85,8
     41,3504	     1592,27	84,5	     1616,36	85,5
     41,3534	     1597,61	84,7	     1624,91	85,6
     41,3563	     1600,96	85,0	      1629,6	86,0
     41,3592	     1609,52	85,0	      1632,8	85,7
     41,3622	      1611,4	85,2	     1635,02	86,0
     41,3651	     1613,97	84,9	      1640,7	85,7
      41,368	     1620,78	85,0	     1646,53	85,9
      41,371	     1624,97	85,4	     1652,23	86,1
     41,3739	     1633,07	85,3	     1659,57	86,3
     41,3768	     1637,07	85,3	     1662,66	86,2
     41,3798	     1642,52	85,3	      1666,8	85,8
     41,3827	     1644,59	85,6	     1675,52	85,9
     41,3856	     1653,85	85,1	     1686,84	86,1
     41,3886	     1660,78	85,5	     1690,74	86,5
     41,3915	     1666,38	85,5	      1692,6	86,2
     41,3944	     1667,14	85,4	     1698,31	86,0
     41,3974	     1673,94	85,5	     1704,25	86,1
     41,4003	     1677,58	85,6	     1709,76	86,3
     41,4032	     1685,61	85,8	     1713,12	86,7
     41,4062	      1691,8	85,9	     1718,77	86,7
     41,4091	      1693,5	85,8	      1725,1	86,5
      41,412	     1699,09	85,8	     1731,83	86,5
      41,415	     1707,45	85,9	     1741,07	86,5
     41,4179	      1709,8	86,1	     1743,61	87,1
     41,4208	     1714,28	86,6	     1748,16	87,1
     41,4238	     1724,53	86,2	     1756,61	86,9
     41,4267	     1729,89	86,0	     1766,11	86,8
     41,4296	     1729,91	86,2	     1772,63	86,7
     41,4326	     1738,81	86,6	     1779,56	87,3
     41,4355	      1746,2	86,4	     1782,08	87,5
     41,4384	     1751,62	86,5	     1785,34	87,7
     41,4413	     1758,39	86,4	      1792,4	87,2
     41,4443	     1763,57	86,3	     1797,57	87,3
     41,4472	     1771,62	86,8	     1802,12	87,5
     41,4501	     1778,71	86,7	     1813,52	87,5
     41,4531	     1779,46	86,9	     1825,25	87,6
      41,456	     1786,85	86,7	      1828,8	87,3
     41,4589	     1793,11	86,9	     1828,86	87,6
     41,4619	     1804,01	86,9	     1838,55	87,9
     41,4648	     1812,12	86,9	      1845,2	88,1
     41,4677	     1817,25	87,2	      1854,9	87,9
     41,4707	     1820,44	87,0	     1863,81	87,7
     41,4736	     1825,52	87,5	     1869,99	88,1
     41,4765	     1829,09	87,4	      1873,7	88,4
     41,4795	     1837,63	87,7	     1875,49	88,1
     41,4824	     1843,21	87,2	      1885,2	88,3
     41,4853	     1850,76	87,7	      1897,3	88,2
     41,4883	     1861,56	87,6	     1906,47	88,4
     41,4912	     1866,32	87,9	     1909,67	88,7
     41,4941	     1875,53	87,6	     1919,95	88,4
     41,4971	     1876,71	87,8	     1927,86	88,4
        41,5	     1889,46	87,5	     1928,94	88,7
     41,5029	     1896,55	88,1	     1937,36	89,2
     41,5059	     1904,99	88,1	     1945,03	89,2
     41,5088	     1911,07	87,8	     1956,56	88,9
     41,5117	     1914,49	88,2	      1964,1	88,9
     41,5147	      1921,8	88,3	     1968,13	89,4
     41,5176	     1930,08	88,7	     1976,32	89,2
     41,5205	      1938,8	88,4	     1986,49	89,1
     41,5235	     1939,98	88,4	        1996	89,2
     41,5264	     1954,23	88,5	     2004,57	89,5
     41,5293	     1964,35	88,8	     2012,12	89,8
     41,5323	     1973,36	88,8	     2019,68	89,7
     41,5352	     1977,52	88,9	     2027,68	89,6
     41,5381	     1985,45	89,2	     2042,41	89,9
     41,5411	     1993,15	89,3	     2046,61	89,9
      41,544	     2002,43	89,5	     2054,06	90,3
     41,5469	     2006,03	89,2	     2060,28	90,1
     41,5499	     2014,19	89,4	     2070,12	90,1
     41,5528	     2026,75	89,4	     2080,05	90,3
     41,5557	     2037,59	89,7	     2092,77	90,5
     41,5587	     2044,92	89,4	     2098,79	90,5
     41,5616	     2049,83	89,5	     2111,71	90,4
     41,5645	     2060,08	89,7	     2120,62	90,7
     41,5674	     2070,78	90,2	     2127,16	91,0
     41,5704	     2076,29	90,1	     2133,46	91,1
     41,5733	     2083,88	90,1	      2140,2	90,7
     41,5762	     2096,82	90,0	     2154,25	90,8
     41,5792	     2106,37	90,4	     2165,37	91,4
     41,5821	     2116,89	90,4	     2184,15	91,4
      41,585	     2124,59	90,5	     2192,73	91,2
      41,588	     2133,05	90,6	     2201,46	91,3
     41,5909	     2140,13	90,9	     2210,78	91,6
     41,5938	      2151,7	90,9	     2219,96	92,1
     41,5968	     2161,44	90,8	     2229,12	91,9
     41,5997	      2174,6	91,0	      2237,7	91,9
     41,6026	     2184,06	91,0	     2250,24	92,3
     41,6056	     2188,27	91,3	     2268,73	92,4
     41,6085	     2203,77	91,2	      2275,6	92,5
     41,6114	     2214,65	91,3	     2285,79	92,5
     41,6144	     2223,57	91,7	     2292,19	92,9
     41,6173	     2235,25	92,1	     2303,47	93,0
     41,6202	     2247,85	91,9	     2318,51	92,9
     41,6232	     2262,55	92,0	     2334,38	92,9
     41,6261	      2268,5	92,3	     2345,33	93,2
      41,629	     2280,14	92,4	     2361,43	93,6
      41,632	     2288,43	92,3	     2370,32	93,8
     41,6349	     2299,63	92,5	     2381,82	93,4
     41,6378	     2315,78	92,6	     2394,25	93,9
     41,6408	     2326,43	93,0	     2409,43	93,9
     41,6437	     2340,15	92,9	     2422,48	93,9
     41,6466	     2349,76	93,1	     2437,75	94,1
     41,6496	      2364,1	93,3	     2451,07	94,3
     41,6525	     2378,44	93,6	     2466,09	94,4
     41,6554	     2383,85	93,4	      2476,6	94,8
     41,6584	     2394,37	93,6	     2492,27	94,4
     41,6613	     2406,67	94,0	     2507,89	95,1
     41,6642	     2421,29	93,8	     2515,91	95,4
     41,6672	     2440,11	93,9	     2531,17	95,2
     41,6701	      2450,1	94,1	     2552,23	95,4
      41,673	     2462,91	94,8	     2568,96	95,9
      41,676	     2478,21	94,5	     2583,17	96,0
     41,6789	     2492,52	94,6	     2598,73	95,9
     41,6818	     2502,93	94,9	     2615,59	96,2
     41,6847	     2516,19	95,4	      2631,4	96,5
     41,6877	     2529,57	95,2	     2646,43	96,8
     41,6906	     2541,46	95,4	     2668,96	96,5
     41,6936	     2560,92	95,9	     2687,32	97,2
     41,6965	     2584,57	96,1	     2708,21	97,4
     41,6994	     2599,45	96,1	     2726,71	97,7
     41,7023	     2617,43	95,7	      2749,1	97,5
     41,7053	     2630,78	96,5	      2777,2	97,8
     41,7082	     2646,58	96,4	     2793,53	98,5
     41,7111	     2661,89	96,8	     2814,26	98,5
     41,7141	     2681,93	97,0	     2836,35	98,4
      41,717	     2695,59	97,5	     2861,55	99,0
     41,7199	     2710,38	97,5	     2881,33	99,4
     41,7229	     2725,91	97,6	     2906,71	99,6
     41,7258	     2750,33	97,8	     2930,26	99,6
     41,7287	      2769,2	98,4	     2958,15	100,2
     41,7317	     2788,92	98,2	     2985,53	100,7
     41,7346	     2804,86	98,5	     3014,12	100,6
     41,7375	     2826,72	99,0	     3043,42	101,4
     41,7405	     2847,93	99,4	     3071,86	101,8
     41,7434	     2868,92	99,3	     3112,48	102,0
     41,7463	     2888,07	99,4	     3147,82	102,1
     41,7493	     2911,96	100,1	     3183,37	103,0
     41,7522	     2934,92	99,8	     3227,62	103,4
     41,7551	     2957,25	100,2	     3268,76	103,4
     41,7581	     2974,77	100,5	      3318,1	104,2
      41,761	     2999,09	101,2	     3367,57	104,8
     41,7639	     3022,01	101,0	     3426,84	104,9
     41,7669	     3043,72	101,7	     3500,78	105,9
     41,7698	      3072,5	102,0	     3570,02	106,9
     41,7727	     3104,06	102,2	     3643,97	107,9
     41,7757	     3131,06	102,1	     3726,18	108,4
     41,7786	     3156,33	103,0	      3833,3	110,0
     41,7815	     3182,33	103,1	     3921,42	111,4
     41,7845	     3207,96	103,2	     4019,31	112,5
     41,7874	     3233,84	103,9	     4118,91	113,6
     41,7903	     3264,06	104,6	     4221,76	115,2
     41,7933	     3291,99	104,8	     4336,32	116,9
     41,7962	     3325,56	105,1	      4426,2	117,5
     41,7991	     3359,98	105,9	     4511,77	119,4
     41,8021	     3389,17	106,1	     4611,18	121,1
      41,805	      3424,1	106,4	     4694,55	122,4
     41,8079	     3453,57	107,3	     4774,89	123,6
     41,8109	     3490,19	107,5	     4847,88	125,4
     41,8138	     3539,19	107,9	     4920,55	126,4
     41,8167	     3577,51	108,4	      4991,9	128,2
     41,8196	     3617,16	109,3	     5049,56	129,6
     41,8226	     3655,96	109,5	     5104,98	130,8
     41,8255	     3715,17	110,5	     5159,52	131,5
     41,8284	     3755,38	111,1	     5222,24	133,4
     41,8314	     3800,47	111,8	     5266,09	134,7
     41,8343	     3845,65	112,1	     5307,39	135,6
     41,8372	     3892,65	113,1	     5345,54	136,6
     41,8402	     3944,76	113,7	     5383,41	138,1
     41,8431	     4005,89	115,0	      5427,3	138,9
      41,846	     4063,11	115,6	     5461,48	139,6
      41,849	     4117,56	116,8	     5490,57	140,9
     41,8519	     4182,71	117,8	     5526,86	141,9
     41,8548	     4246,16	118,5	     5553,35	142,4
     41,8578	     4306,97	120,1	     5578,73	143,3
     41,8607	     4370,89	121,0	     5600,32	144,3
     41,8636	     4437,13	121,8	     5621,61	144,7
     41,8666	     4517,09	123,2	      5641,1	145,6
     41,8695	     4588,21	124,5	     5661,47	146,9
     41,8724	     4662,81	125,8	     5683,43	147,5
     41,8754	     4746,01	127,2	     5697,68	147,9
     41,8783	     4811,87	129,0	     5706,86	149,0
     41,8812	     4892,33	130,1	     5720,15	149,8
     41,8842	     4964,97	131,9	        5728	150,0
     41,8871	      5039,6	133,5	     5736,36	150,9
       41,89	     5112,33	134,7	     5747,13	151,8
      41,893	     5203,29	136,7	     5763,25	152,2
     41,8959	     5275,15	138,7	      5782,2	153,2
     41,8988	     5342,87	140,4	      5791,5	154,3
     41,9018	      5414,7	142,0	     5796,84	154,3
     41,9047	     5470,06	143,9	     5804,83	154,9
     41,9076	     5526,17	145,0	     5809,88	155,7
     41,9106	     5586,03	147,1	     5815,78	155,7
     41,9135	     5631,46	148,9	     5822,11	155,9
     41,9164	     5670,07	150,0	     5824,52	156,7
     41,9194	     5707,59	151,1	     5829,22	157,3
     41,9223	     5733,84	152,4	      5831,5	157,8
     41,9252	     5762,18	154,1	     5835,07	158,2
     41,9282	     5782,34	154,7	     5838,04	158,7
     41,9311	     5797,81	156,0	     5831,96	158,9
      41,934	     5811,63	156,3	     5829,67	159,5
      41,937	     5819,14	157,6	     5827,75	159,8
     41,9399	     5826,77	158,5	     5825,48	160,1
     41,9428	     5835,41	159,1	     5827,46	160,6
     41,9457	      5843,1	159,4	     5832,26	161,4
     41,9487	     5846,43	160,5	      5832,8	161,6
     41,9516	     5850,83	161,0	     5831,63	162,0
     41,9545	     5853,21	161,2	     5828,95	162,4
     41,9575	      5851,8	162,2	        5833	162,6
     41,9604	      5853,5	162,5	     5830,58	163,6
     41,9633	     5848,13	162,5	     5827,61	164,3
     41,9663	     5844,99	163,3	     5828,35	163,9
     41,9692	     5843,44	163,7	     5821,96	164,8
     41,9721	     5842,31	164,1	     5824,83	165,1
     41,9751	     5838,79	165,1	     5818,39	165,4
      41,978	     5839,57	165,1	     5815,04	166,0
     41,9809	     5837,84	165,0	     5813,78	166,5
     41,9839	     5838,33	166,1	     5817,66	166,5
     41,9868	     5836,28	166,3	     5811,39	167,2
     41,9897	     5837,74	167,0	     5806,52	168,0
     41,9927	     5840,66	167,2	     5805,85	167,9
     41,9956	     5831,61	167,7	     5798,97	168,4
     41,9985	     5819,85	167,9	     5798,62	168,8
     42,0015	     5814,09	168,6	     5796,13	168,9
     42,0044	     5814,29	168,8	     5793,58	169,3
     42,0073	     5804,13	168,8	     5785,02	170,0
     42,0103	     5793,68	169,4	     5778,81	169,7
     42,0132	     5793,39	169,4	     5772,11	170,5
     42,0161	     5793,66	169,5	     5769,25	170,5
     42,0191	     5789,05	170,5	     5764,25	171,1
      42,022	     5789,81	170,5	     5756,55	171,7
     42,0249	     5784,37	171,5	     5753,35	171,6
     42,0279	     5782,95	171,7	     5749,65	171,9
     42,0308	     5780,87	171,8	     5742,44	172,9
     42,0337	     5770,05	172,3	     5740,12	173,2
     42,0367	     5762,35	172,7	     5733,91	173,0
     42,0396	     5754,89	173,1	      5724,6	173,6
     42,0425	     5754,75	173,2	     5719,06	173,2
     42,0455	     5747,49	173,7	     5712,21	174,0
     42,0484	     5742,68	173,9	     5705,66	174,4
     42,0513	     5735,03	174,6	     5705,28	174,3
     42,0543	     5733,03	174,6	     5698,02	174,9
     42,0572	     5725,71	174,6	     5687,63	175,6
     42,0601	     5714,61	175,5	     5682,11	175,2
      42,063	     5712,15	175,5	     5674,21	175,9
      42,066	     5698,97	176,2	     5670,55	176,0
     42,0689	     5692,45	176,4	     5668,64	176,0
     42,0718	     5682,33	176,0	      5657,3	176,8
     42,0748	     5673,71	177,1	     5650,54	176,8
     42,0777	     5665,94	177,0	     5644,11	177,1
     42,0806	     5660,58	177,0	     5635,93	177,6
     42,0836	     5656,98	178,0	     5635,62	177,2
     42,0865	     5646,42	177,9	     5624,73	178,1
     42,0894	     5638,01	177,8	     5615,79	178,4
     42,0924	     5627,48	178,8	     5610,79	178,1
     42,0953	     5621,73	178,7	     5603,34	178,8
     42,0982	     5611,43	179,4	     5596,67	178,7
     42,1012	     5608,77	179,6	     5586,36	179,1
     42,1041	     5599,38	179,4	     5580,93	179,7
      42,107	     5591,06	180,1	     5576,64	179,4
       42,11	     5584,87	180,4	     5570,81	180,0
     42,1129	     5576,17	180,3	     5556,24	180,5
     42,1158	     5566,87	181,1	     5552,38	180,3
     42,1188	     5559,55	181,1	     5544,42	180,7
     42,1217	     5549,61	181,4	     5539,71	180,8
     42,1246	     5541,81	181,6	     5532,28	181,1
     42,1276	     5525,82	181,9	     5514,67	181,4
     42,1305	     5514,25	182,1	     5510,53	181,5
     42,1334	     5506,67	182,2	     5501,63	181,8
     42,1364	     5504,92	182,4	     5496,03	182,3
     42,1393	     5497,14	182,7	     5482,47	182,4
     42,1422	     5481,32	183,0	     5478,06	182,6
     42,1452	     5472,27	182,9	     5470,53	182,9
     42,1481	     5469,48	183,0	     5464,21	183,0
      42,151	     5457,62	183,5	     5451,77	184,0
      42,154	     5451,06	183,8	     5445,96	183,8
     42,1569	     5445,93	184,0	     5435,17	183,9
     42,1598	     5436,55	184,0	     5424,68	184,5
     42,1628	     5424,67	184,5	     5416,64	184,5
     42,1657	     5416,15	184,7	     5409,51	184,5
     42,1686	     5412,45	184,8	     5400,01	185,1
     42,1716	     5399,92	185,0	     5391,56	185,1
     42,1745	     5391,35	185,2	     5380,01	186,0
     42,1774	     5380,28	185,7	     5371,51	185,6
     42,1804	     5371,11	185,7	     5361,63	186,0
     42,1833	     5361,67	185,9	      5353,4	186,6
     42,1862	     5349,67	186,5	     5344,26	186,3
     42,1891	     5340,09	186,5	     5337,63	186,6
     42,1921	     5333,62	186,8	     5324,26	187,1
      42,195	     5318,58	187,1	     5317,65	186,8
     42,1979	     5308,77	187,6	     5311,38	187,1
     42,2009	     5298,45	187,6	      5297,3	187,4
     42,2038	      5290,9	187,8	     5292,52	187,6
     42,2067	     5278,11	188,1	     5289,47	187,6
     42,2097	     5268,91	188,3	      5279,6	187,8
     42,2126	     5266,35	188,3	     5268,92	188,0
     42,2155	     5254,63	189,0	     5260,54	188,2
     42,2185	     5245,74	188,8	     5251,54	188,4
     42,2214	     5239,12	189,4	     5243,37	188,4
     42,2243	     5235,18	189,1	     5218,21	188,8
     42,2273	     5225,81	189,4	     5200,49	188,9
     42,2302	     5206,78	189,9	     5191,92	188,8
     42,2331	     5200,98	189,6	     5181,15	189,5
     42,2361	     5193,27	190,1	     5172,53	189,6
      42,239	      5183,5	190,0	     5163,39	189,2
     42,2419	     5176,04	190,0	     5148,67	190,2
     42,2449	     5163,97	190,6	     5142,26	190,1
     42,2478	     5151,31	190,6	     5133,48	190,7
     42,2507	     5139,03	191,5	     5125,46	190,8
     42,2537	     5126,59	191,4	     5113,43	190,8
     42,2566	     5121,27	191,1	     5110,22	190,8
     42,2595	     5103,25	191,9	     5104,15	190,7
     42,2625	     5095,06	192,0	      5096,3	191,2
     42,2654	     5087,95	192,6	     5083,51	191,5
     42,2683	     5078,47	192,2	      5077,4	191,4
     42,2713	     5064,49	192,8	     5069,17	191,8
     42,2742	     5052,47	193,0	     5058,06	192,1
     42,2771	     5047,24	192,6	     5049,37	192,4
     42,2801	     5042,64	192,8	     5041,28	192,2
      42,283	     5032,08	193,0	     5027,01	192,8
     42,2859	     5026,33	193,2	     5015,82	193,0
     42,2889	     5014,85	193,3	     5005,26	193,5
     42,2918	     5008,98	193,6	     4996,78	193,5
     42,2947	     4990,67	194,0	     4986,76	193,8
     42,2977	     4979,79	193,6	     4977,15	194,2
     42,3006	     4969,32	194,3	     4971,71	193,9
     42,3035	     4954,93	194,4	     4962,72	194,1
     42,3064	     4943,55	194,6	     4949,53	195,0
     42,3094	     4932,79	195,2	     4946,92	194,3
     42,3123	     4927,41	195,2	     4937,77	194,5
     42,3153	     4914,36	195,8	     4923,07	194,9
     42,3182	     4904,88	195,5	      4919,4	195,0
     42,3211	     4899,08	195,8	     4909,98	195,2
      42,324	     4888,81	196,1	     4895,66	195,4
      42,327	      4883,8	195,6	     4889,24	196,0
     42,3299	     4868,24	196,4	     4881,34	195,6
     42,3328	     4860,25	196,1	     4864,04	196,3
     42,3358	     4849,81	196,5	     4855,87	196,3
     42,3387	     4837,55	196,6	      4846,7	196,8
     42,3416	     4822,43	196,9	      4839,2	196,9
     42,3446	     4814,22	197,1	      4825,8	196,7
     42,3475	     4803,44	196,9	      4822,8	196,5
     42,3504	     4790,38	197,9	     4808,66	196,8
     42,3534	     4786,35	197,6	     4802,56	197,4
     42,3563	     4769,81	198,2	     4796,29	197,2
     42,3592	     4761,34	198,2	     4783,46	197,7
     42,3622	     4752,65	198,2	     4773,04	197,6
     42,3651	     4743,75	198,2	     4763,68	197,8
      42,368	     4736,36	198,2	     4748,33	198,5
      42,371	     4723,19	198,6	     4740,52	198,5
     42,3739	     4716,24	198,3	      4727,2	198,9
     42,3768	     4703,44	198,8	      4717,2	198,7
     42,3798	     4691,33	198,9	     4709,35	199,1
     42,3827	     4685,61	199,2	     4704,61	198,6
     42,3856	     4668,62	199,5	     4693,78	199,0
     42,3886	     4661,27	199,7	     4682,41	199,5
     42,3915	     4650,53	-159,9	     4675,98	199,2
     42,3944	     4644,35	-160,1	      4670,8	199,8
     42,3974	     4631,28	-159,6	     4654,76	199,8
     42,4003	     4621,77	-159,8	     4641,13	-159,5
     42,4032	      4616,8	-159,5	     4633,96	-159,7
     42,4062	     4602,97	-159,9	     4618,12	-159,3
     42,4091	     4585,65	-159,0	     4611,39	-159,4
      42,412	     4575,39	-159,3	     4603,04	-159,2
      42,415	     4565,51	-159,4	     4595,63	-158,8
     42,4179	      4556,4	-158,5	     4587,09	-159,4
     42,4208	     4547,77	-158,8	     4577,68	-158,9
     42,4238	      4535,5	-158,1	      4563,5	-158,9
     42,4267	     4528,78	-158,3	     4554,96	-158,4
     42,4296	     4521,87	-158,1	     4543,65	-158,6
     42,4326	     4513,56	-158,4	     4531,16	-157,6
     42,4355	     4497,65	-158,1	     4525,36	-157,9
     42,4384	     4491,05	-157,9	     4513,97	-157,7
     42,4413	     4477,43	-157,5	     4504,11	-157,1
     42,4443	     4469,94	-157,5	     4497,63	-157,6
     42,4472	     4457,28	-157,5	      4489,9	-157,5
     42,4501	     4444,21	-156,7	     4481,22	-157,5
     42,4531	     4432,52	-156,8	     4468,86	-156,9
      42,456	     4425,57	-156,6	      4460,2	-157,3
     42,4589	     4415,81	-156,3	     4445,17	-156,3
     42,4619	     4408,94	-156,3	     4431,62	-156,7
     42,4648	     4402,83	-156,6	     4420,42	-156,2
     42,4677	     4391,56	-156,2	     4409,87	-156,1
     42,4707	      4378,4	-156,0	     4401,74	-156,0
     42,4736	     4366,86	-156,3	     4399,65	-156,5
     42,4765	     4354,25	-155,6	      4388,1	-156,0
     42,4795	     4344,93	-155,5	     4379,26	-155,8
     42,4824	     4333,03	-155,2	     4368,18	-156,0
     42,4853	     4319,06	-155,1	      4355,5	-155,0
     42,4883	     4314,04	-154,8	     4341,22	-155,0
     42,4912	     4309,95	-155,6	      4332,5	-154,9
     42,4941	     4296,45	-154,9	     4324,87	-154,8
     42,4971	     4285,41	-154,8	     4312,49	-154,7
        42,5	     4281,87	-154,9	     4311,06	-155,3
     42,5029	     4266,02	-154,4	     4296,85	-154,8
     42,5059	     4251,14	-153,8	     4287,12	-155,0
     42,5088	     4241,37	-153,9	     4274,39	-154,3
     42,5117	     4232,53	-153,9	     4266,28	-153,9
     42,5147	     4224,99	-153,4	     4255,58	-153,6
     42,5176	     4223,48	-154,1	     4249,52	-154,0
     42,5205	      4212,2	-153,7	     4243,33	-153,7
     42,5235	      4193,2	-153,4	     4226,49	-153,4
     42,5264	     4185,84	-153,2	     4218,64	-153,8
     42,5293	      4176,6	-153,2	     4208,96	-153,5
     42,5323	     4164,21	-152,4	     4195,68	-153,0
     42,5352	     4159,77	-153,1	     4185,12	-153,0
     42,5381	     4144,49	-152,3	     4169,85	-152,9
     42,5411	     4134,68	-152,5	     4165,07	-152,4
      42,544	     4126,85	-152,6	     4158,38	-152,9
     42,5469	     4119,52	-152,5	     4149,41	-152,8
     42,5499	     4112,85	-152,3	     4137,87	-152,8
     42,5528	     4096,51	-152,0	     4128,85	-152,4
     42,5557	     4082,42	-151,4	     4117,57	-152,2
     42,5587	     4075,66	-151,8	     4102,25	-151,3
     42,5616	     4072,47	-151,7	     4094,88	-151,8
     42,5645	      4066,1	-151,9	     4082,03	-151,4
     42,5674	      4048,8	-151,6	     4077,51	-151,7
     42,5704	     4038,66	-151,4	     4070,26	-151,7
     42,5733	     4027,64	-150,9	     4061,53	-151,4
     42,5762	     4017,62	-150,8	      4053,6	-151,4
     42,5792	     4005,45	-150,7	     4037,77	-151,0
     42,5821	     3998,15	-150,1	     4023,98	-150,1
      42,585	     3993,06	-150,6	     4013,67	-150,5
      42,588	     3980,35	-150,5	     4007,65	-150,5
     42,5909	     3971,94	-150,7	     4003,21	-150,9
     42,5938	     3957,54	-150,1	     3991,93	-150,6
     42,5968	     3947,86	-149,9	      3982,6	-150,2
     42,5997	     3934,06	-149,8	     3973,68	-150,0
     42,6026	     3923,42	-149,8	     3960,82	-149,7
     42,6056	     3917,82	-149,3	      3950,7	-149,5
     42,6085	     3913,64	-149,9	     3947,76	-150,0
     42,6114	     3903,07	-149,4	     3938,04	-149,6
     42,6144	     3893,74	-149,6	     3925,03	-149,4
     42,6173	     3878,49	-149,1	     3917,47	-149,6
     42,6202	     3867,04	-148,9	     3906,42	-149,1
     42,6232	     3860,21	-148,6	     3890,93	-148,7
     42,6261	     3856,09	-149,1	     3877,67	-148,7
      42,629	     3843,27	-148,3	     3868,23	-148,9
      42,632	     3836,38	-148,9	     3864,12	-148,9
     42,6349	     3827,17	-148,3	     3850,22	-149,3
     42,6378	     3813,58	-147,9	     3830,51	-149,0
     42,6408	     3804,67	-148,0	      3821,6	-148,9
     42,6437	     3793,48	-147,9	     3811,93	-148,0
     42,6466	     3784,42	-147,5	     3810,45	-148,0
     42,6496	      3781,2	-148,2	     3806,93	-148,4
     42,6525	      3770,4	-147,7	     3792,84	-148,2
     42,6554	     3760,81	-148,1	     3784,29	-148,0
     42,6584	     3744,63	-147,0	     3776,25	-147,6
     42,6613	     3735,41	-147,4	     3770,38	-147,0
     42,6642	     3726,33	-146,6	     3762,42	-147,1
     42,6672	     3719,89	-147,2	     3758,82	-146,9
     42,6701	     3712,33	-147,0	     3751,15	-147,4
      42,673	     3703,41	-147,2	     3739,77	-147,3
      42,676	     3687,71	-146,3	     3727,08	-147,0
     42,6789	     3682,87	-146,7	     3717,46	-146,5
     42,6818	     3667,14	-146,1	     3702,68	-146,2
     42,6847	     3663,81	-146,6	      3696,6	-146,7
     42,6877	     3660,61	-146,4	     3689,44	-146,3
     42,6906	     3647,45	-146,4	     3678,73	-146,5
     42,6936	      3640,3	-146,1	     3672,51	-146,0
     42,6965	     3628,56	-146,2	     3660,41	-146,0
     42,6994	     3612,06	-145,2	     3647,12	-145,2
     42,7023	     3615,34	-145,8	     3643,98	-146,1
     42,7053	     3595,72	-145,3	     3626,91	-145,7
     42,7082	     3596,11	-145,8	     3623,56	-146,3
     42,7111	     3581,63	-145,3	     3607,11	-145,3
     42,7141	     3569,36	-144,8	     3604,03	-145,7
      42,717	     3562,04	-145,1	     3588,66	-144,9
     42,7199	     3548,53	-144,7	      3582,2	-145,3
     42,7229	     3546,67	-145,2	     3578,81	-145,3
     42,7258	     3541,35	-144,8	     3567,19	-145,2
     42,7287	     3529,51	-145,1	     3559,61	-144,8
     42,7317	     3516,24	-144,2	     3546,85	-144,8
     42,7346	     3506,07	-144,4	     3535,14	-144,2
     42,7375	     3500,72	-144,2	     3532,27	-144,6
     42,7405	      3486,6	-144,2	     3522,66	-144,4
     42,7434	     3482,21	-144,3	     3516,95	-144,4
     42,7463	     3469,28	-144,3	     3503,95	-144,2
     42,7493	     3455,04	-143,3	     3490,22	-143,3
     42,7522	     3452,48	-144,1	     3479,02	-143,6
     42,7551	     3448,91	-144,0	     3472,75	-143,4
     42,7581	     3440,02	-144,0	     3471,27	-144,1
      42,761	     3429,99	-143,6	     3460,59	-143,5
     42,7639	     3416,72	-143,3	     3451,31	-143,4
     42,7669	      3405,5	-143,0	     3442,02	-142,9
     42,7698	     3394,67	-142,9	     3429,25	-143,0
     42,7727	     3389,62	-143,0	     3422,69	-143,1
     42,7757	      3386,8	-143,2	     3414,82	-143,4
     42,7786	     3374,71	-142,9	     3406,19	-142,8
     42,7815	     3362,86	-142,1	     3395,75	-142,9
     42,7845	     3349,53	-142,3	      3387,6	-142,2
     42,7874	     3343,77	-142,4	      3383,1	-142,9
     42,7903	     3342,61	-143,1	     3374,65	-143,1
     42,7933	     3328,06	-142,2	     3356,81	-142,1
     42,7962	     3321,69	-142,7	     3347,43	-142,4
     42,7991	     3307,45	-141,5	     3336,96	-141,7
     42,8021	     3300,17	-142,0	     3332,91	-142,5
      42,805	     3295,15	-142,0	     3326,41	-142,1
     42,8079	     3289,56	-142,1	     3317,01	-142,1
     42,8109	     3273,23	-141,7	     3307,17	-141,9
     42,8138	     3266,05	-141,6	     3290,58	-141,7
     42,8167	     3258,93	-141,4	     3283,56	-141,3
     42,8196	     3258,22	-141,5	     3281,38	-141,8
     42,8226	     3247,41	-141,8	     3274,07	-141,8
     42,8255	     3236,71	-141,1	      3258,6	-140,8
     42,8284	     3222,53	-141,1	     3248,34	-141,1
     42,8314	     3213,35	-141,0	      3241,1	-140,7
     42,8343	     3204,68	-141,3	     3241,69	-141,8
     42,8372	      3191,5	-141,5	      3230,5	-141,1
     42,8402	     3181,67	-141,0	     3218,33	-141,2
     42,8431	     3174,64	-141,0	     3206,65	-140,3
      42,846	     3170,51	-140,7	     3201,58	-140,9
      42,849	     3166,26	-141,6	     3197,98	-141,2
     42,8519	     3158,58	-140,9	     3190,23	-141,1
     42,8548	     3144,81	-140,6	     3176,84	-140,3
     42,8578	     3134,38	-139,9	     3166,36	-139,8
     42,8607	     3132,78	-140,7	     3157,65	-140,1
     42,8636	     3118,71	-140,2	     3152,99	-140,3
     42,8666	     3116,22	-140,7	     3145,96	-140,5
     42,8695	     3102,03	-140,0	     3133,29	-139,6
     42,8724	     3090,32	-139,6	     3126,75	-139,9
     42,8754	     3082,86	-139,8	     3117,85	-139,5
     42,8783	     3082,64	-139,7	      3110,2	-140,3
     42,8812	     3073,66	-139,9	     3097,24	-140,1
     42,8842	     3058,62	-139,3	      3082,8	-139,1
     42,8871	     3055,17	-139,4	     3074,18	-139,7
       42,89	     3046,04	-139,2	      3072,4	-139,2
      42,893	     3045,91	-139,7	     3066,76	-140,0
     42,8959	     3031,68	-139,4	     3051,41	-139,4
     42,8988	      3024,6	-139,1	     3038,76	-138,8
     42,9018	     3012,46	-139,0	     3033,24	-138,8
     42,9047	      3010,4	-139,1	     3029,68	-139,1
     42,9076	     3006,68	-139,2	     3024,41	-139,5
     42,9106	     2988,86	-138,6	     3007,97	-138,5
     42,9135	     2985,66	-138,4	     3002,25	-138,6
     42,9164	     2973,66	-138,3	     2990,26	-138,1
     42,9194	     2967,99	-138,6	     2991,24	-139,1
     42,9223	     2961,03	-139,0	     2980,14	-138,9
     42,9252	     2946,59	-138,0	     2966,72	-137,9
     42,9282	     2949,73	-138,3	     2960,07	-138,2
     42,9311	     2935,51	-137,9	     2954,93	-138,1
      42,934	     2935,08	-138,5	     2953,42	-138,9
      42,937	     2921,64	-138,5	     2936,76	-138,0
     42,9399	     2912,73	-137,6	     2927,37	-138,2
     42,9428	     2908,71	-138,3	     2917,29	-137,8
     42,9457	     2897,47	-137,5	     2917,88	-138,2
     42,9487	     2896,85	-138,4	     2905,66	-138,2
     42,9516	     2880,24	-137,2	     2898,47	-137,3
     42,9545	      2873,8	-137,3	      2889,5	-137,4
     42,9575	     2865,15	-137,3	     2889,04	-137,5
     42,9604	     2862,13	-137,5	     2881,32	-137,9
     42,9633	     2855,19	-137,6	     2867,28	-137,4
     42,9663	     2840,85	-136,7	     2855,36	-137,3
     42,9692	     2838,23	-137,2	     2854,88	-137,2
     42,9721	     2834,29	-137,4	     2850,18	-137,4
     42,9751	     2823,93	-137,3	     2834,99	-136,8
      42,978	     2813,29	-136,9	     2830,94	-136,6
     42,9809	     2809,26	-136,4	     2820,15	-136,6
     42,9839	     2808,05	-137,1	     2819,43	-137,4
     42,9868	     2795,38	-136,8	        2810	-136,7
     42,9897	     2786,92	-136,8	     2797,05	-136,4
     42,9927	     2774,61	-136,3	     2787,75	-136,0
     42,9956	     2777,94	-136,7	      2786,3	-136,9
     42,9985	     2766,84	-136,7	     2780,96	-137,0
     43,0015	     2754,42	-136,3	     2768,55	-135,8
     43,0044	     2745,02	-135,8	     2760,66	-136,4
     43,0073	     2737,54	-136,2	     2753,23	-135,9
     43,0103	     2740,61	-136,2	      2751,1	-136,8
     43,0132	     2725,86	-135,9	     2738,32	-136,0
     43,0161	     2718,52	-135,2	     2731,06	-135,8
     43,0191	     2711,05	-135,7	      2726,5	-135,9
      43,022	      2709,5	-136,2	     2724,77	-135,9
     43,0249	     2704,75	-135,9	     2713,39	-135,9
     43,0279	      2690,2	-135,4	     2703,86	-135,5
     43,0308	     2680,18	-134,9	      2687,3	-135,4
     43,0337	     2685,86	-136,0	     2695,52	-135,9
     43,0367	     2669,79	-135,3	     2683,33	-135,3
     43,0396	     2664,34	-135,1	     2674,92	-135,1
     43,0425	      2655,4	-135,1	      2673,4	-135,5
     43,0455	     2653,83	-135,2	     2668,71	-135,3
     43,0484	     2646,19	-135,9	     2661,47	-135,6
     43,0513	     2634,89	-134,6	     2642,28	-134,6
     43,0543	      2627,9	-134,6	     2639,93	-135,0
     43,0572	     2626,77	-135,5	     2634,49	-135,5
     43,0601	     2615,81	-134,5	     2624,66	-134,4
      43,063	     2608,16	-134,7	     2620,32	-134,9
      43,066	      2594,5	-134,2	     2613,85	-134,3
     43,0689	     2599,24	-134,7	     2610,76	-135,2
     43,0718	     2591,66	-134,8	     2596,92	-134,5
     43,0748	     2579,27	-133,8	      2586,9	-134,1
     43,0777	     2577,54	-134,4	     2587,05	-134,8
     43,0806	     2567,82	-134,5	     2579,41	-134,4
     43,0836	     2565,27	-134,0	     2568,22	-133,8
     43,0865	     2551,52	-133,9	     2563,63	-134,1
     43,0894	      2552,1	-134,3	     2558,73	-134,0
     43,0924	     2543,96	-134,4	     2556,36	-134,6
     43,0953	     2533,99	-134,1	     2542,02	-133,9
     43,0982	     2522,77	-133,1	     2527,46	-133,6
     43,1012	     2524,95	-134,0	     2535,22	-134,1
     43,1041	     2517,22	-133,8	     2527,25	-134,1
      43,107	     2511,49	-133,4	      2513,4	-133,7
       43,11	     2494,52	-133,3	     2512,22	-133,8
     43,1129	     2497,48	-133,7	     2505,39	-133,7
     43,1158	     2490,92	-133,4	     2501,68	-134,2
     43,1188	     2479,94	-133,4	     2488,97	-133,1
     43,1217	     2471,68	-132,6	     2487,91	-133,7
     43,1246	     2472,09	-133,8	     2482,25	-133,6
     43,1276	     2462,72	-133,0	     2471,63	-133,3
     43,1305	     2454,29	-132,8	     2462,98	-132,9
     43,1334	     2443,64	-133,0	     2465,71	-133,5
     43,1364	     2445,81	-133,0	     2455,77	-133,6
     43,1393	     2435,67	-132,5	     2442,28	-133,3
     43,1422	     2429,58	-132,9	     2434,52	-132,3
     43,1452	     2423,45	-132,6	     2441,41	-133,3
     43,1481	     2421,72	-133,3	      2431,3	-133,3
      43,151	     2405,41	-131,9	     2418,41	-132,1
      43,154	     2402,22	-132,5	     2411,04	-132,4
     43,1569	     2407,26	-133,2	     2415,53	-132,8
     43,1598	     2397,95	-132,5	     2403,01	-132,0
     43,1628	     2384,02	-131,9	     2399,49	-132,7
     43,1657	     2378,57	-132,5	     2387,03	-132,3
     43,1686	     2374,23	-132,3	      2385,3	-132,9
     43,1716	     2369,54	-132,5	     2376,33	-132,3
     43,1745	      2354,5	-131,6	     2374,15	-132,2
     43,1774	     2356,05	-132,3	     2363,29	-132,4
     43,1804	     2352,79	-132,4	     2359,86	-132,2
     43,1833	     2338,02	-131,6	     2348,96	-131,5
     43,1862	     2332,87	-131,8	      2350,7	-132,5
     43,1891	     2335,14	-132,4	     2344,89	-132,2
     43,1921	     2324,32	-131,1	     2333,09	-131,8
      43,195	     2316,05	-131,5	     2325,68	-131,7
     43,1979	     2314,97	-131,9	     2327,55	-131,9
     43,2009	     2315,34	-131,5	     2312,52	-131,5
     43,2038	      2299,1	-131,2	     2311,99	-131,7
     43,2067	      2292,8	-131,9	     2300,89	-131,2
     43,2097	     2295,19	-131,8	     2302,39	-132,1
     43,2126	     2284,19	-131,3	      2290,8	-131,2
     43,2155	      2273,1	-131,0	     2286,51	-131,1
     43,2185	     2278,79	-131,6	     2284,24	-131,8
     43,2214	     2265,37	-131,1	     2275,88	-131,4
     43,2243	     2259,47	-130,6	     2265,41	-130,7
     43,2273	     2252,14	-131,1	      2268,6	-131,8
     43,2302	     2254,55	-131,6	     2261,53	-131,3
     43,2331	     2240,52	-130,3	     2246,55	-131,1
     43,2361	     2233,04	-130,7	     2246,48	-131,0
      43,239	     2233,89	-131,3	     2245,41	-131,2
     43,2419	      2229,9	-130,3	     2227,31	-130,5
     43,2449	     2219,04	-130,5	      2223,5	-130,4
     43,2478	     2220,05	-131,3	     2224,34	-130,7
     43,2507	      2208,9	-130,2	     2216,39	-131,1
     43,2537	     2202,55	-130,4	     2208,05	-130,5
     43,2566	     2198,92	-130,5	     2209,46	-130,8
     43,2595	     2196,43	-130,6	     2205,21	-131,2
     43,2625	     2184,41	-130,2	     2191,08	-130,5
     43,2654	     2179,21	-129,8	     2192,13	-130,0
     43,2683	     2183,64	-130,5	     2185,41	-130,7
     43,2713	     2171,34	-130,1	     2176,88	-130,0
     43,2742	     2161,08	-130,3	     2168,93	-130,0
     43,2771	     2164,28	-130,2	     2172,01	-130,8
     43,2801	     2159,35	-130,5	     2161,43	-130,3
      43,283	     2142,41	-129,5	     2154,79	-129,7
     43,2859	     2149,68	-130,2	     2147,58	-130,1
     43,2889	     2146,41	-129,9	     2149,97	-130,4
     43,2918	     2127,42	-129,1	     2134,79	-129,4
     43,2947	     2126,88	-129,8	     2136,97	-130,4
     43,2977	     2129,16	-130,2	     2128,14	-130,3
     43,3006	     2114,57	-129,3	     2118,94	-129,9
     43,3035	     2117,03	-129,9	     2118,67	-129,7
     43,3064	     2110,46	-130,5	     2119,84	-130,0
     43,3094	     2092,74	-129,0	     2100,89	-129,0
     43,3123	     2097,27	-129,5	     2098,02	-129,5
     43,3153	     2099,27	-129,7	     2101,21	-129,9
     43,3182	     2085,68	-129,2	     2087,72	-129,4
     43,3211	     2076,56	-129,1	     2084,05	-129,4
      43,324	     2080,65	-129,8	     2088,24	-129,9
      43,327	      2066,5	-129,0	        2076	-129,7
     43,3299	     2067,32	-129,2	     2064,37	-129,1
     43,3328	     2063,87	-129,7	     2071,74	-129,7
     43,3358	     2055,09	-128,9	     2055,73	-129,2
     43,3387	     2046,14	-128,8	     2050,51	-129,0
     43,3416	     2045,29	-129,6	     2049,92	-128,6
     43,3446	     2040,62	-129,1	     2047,19	-129,1
     43,3475	     2031,77	-128,3	     2036,12	-128,9
     43,3504	     2038,55	-129,5	     2033,13	-128,7
     43,3534	     2023,53	-128,5	     2031,36	-129,3
     43,3563	      2016,3	-128,1	     2017,99	-128,7
     43,3592	     2019,13	-129,2	      2024,7	-129,4
     43,3622	      2007,4	-128,5	     2020,58	-129,2
     43,3651	     1996,26	-128,1	     2005,34	-128,7
      43,368	     2004,82	-129,2	     2006,35	-128,7
      43,371	     1993,73	-128,5	     2003,62	-128,9
     43,3739	     1986,63	-128,5	     1985,07	-128,2
     43,3768	     1995,64	-128,8	     1989,96	-128,1
     43,3798	     1983,72	-128,7	     1993,17	-129,0
     43,3827	     1970,32	-127,9	     1976,22	-128,3
     43,3856	     1976,66	-128,6	     1975,32	-128,7
     43,3886	     1964,73	-127,8	     1972,56	-128,5
     43,3915	      1954,7	-127,8	     1960,32	-128,4
     43,3944	      1961,5	-128,4	     1960,78	-128,6
     43,3974	     1953,61	-127,6	     1957,29	-128,4
     43,4003	     1950,64	-128,6	     1944,92	-128,4
     43,4032	     1943,04	-128,0	     1943,85	-128,1
     43,4062	     1938,06	-127,8	     1945,08	-128,5
     43,4091	     1932,24	-128,1	     1934,94	-127,4
      43,412	     1931,94	-128,2	     1936,43	-128,6
      43,415	     1926,45	-127,9	     1933,87	-128,4
     43,4179	     1916,06	-128,0	     1917,45	-127,6
     43,4208	     1919,41	-127,9	     1916,96	-128,3
     43,4238	     1906,48	-126,9	     1914,68	-128,2
     43,4267	     1909,73	-128,3	     1908,63	-127,4
     43,4296	     1905,92	-128,4	     1901,63	-127,8
     43,4326	     1892,66	-126,9	     1902,56	-128,3
     43,4355	     1898,14	-128,0	     1891,24	-127,0
     43,4384	     1887,08	-127,4	     1895,57	-128,0
     43,4413	     1879,74	-127,7	     1889,66	-128,3
     43,4443	     1880,97	-127,7	     1874,55	-126,9
     43,4472	     1877,55	-127,7	     1881,26	-127,8
     43,4501	     1866,96	-127,6	      1868,7	-127,4
     43,4531	     1870,55	-127,5	     1870,08	-127,8
      43,456	      1860,3	-127,3	     1869,73	-127,5
     43,4589	     1855,65	-127,4	     1854,91	-127,3
     43,4619	     1856,04	-127,3	     1857,28	-127,8
     43,4648	     1840,57	-126,8	     1850,96	-127,5
     43,4677	     1846,97	-127,8	     1839,53	-127,4
     43,4707	      1845,6	-127,4	     1841,76	-127,4
     43,4736	     1830,09	-126,4	     1840,49	-127,6
     43,4765	     1838,64	-127,4	     1831,18	-126,6
     43,4795	     1829,13	-127,2	     1832,17	-127,6
     43,4824	     1815,51	-126,6	     1827,23	-127,8
     43,4853	     1823,56	-127,1	     1817,69	-126,3
     43,4883	     1817,75	-127,3	     1820,77	-127,4
     43,4912	     1806,51	-126,7	     1805,15	-126,8
     43,4941	     1812,44	-127,1	     1810,14	-127,5
     43,4971	     1795,79	-126,3	     1806,54	-127,1
        43,5	     1793,64	-126,0	     1786,59	-126,6

