X-Data [Hz]	Piezo (M - Filtered) [mV]	Phase [Deg]	Piezo (M - Filtered) [mV]	Phase [Deg]	
	002: [07-09-24 17:36]		003: [07-09-24 17:38]	
        41,5	     95,1448	-100,9	     95,0372	-100,2
      41,502	     94,2822	-103,8	     95,2873	-102,5
     41,5039	      94,158	-104,7	     98,4753	-101,3
     41,5059	      95,414	-101,4	     96,6158	-100,4
     41,5078	      95,859	-103,3	     96,7469	-100,1
     41,5098	     97,0256	-101,8	     96,3786	-102,4
     41,5117	     96,8704	-101,3	     96,0508	-104,0
     41,5137	     96,6478	-101,7	     96,4246	-104,6
     41,5156	     95,8892	-102,6	     96,1062	-102,0
     41,5176	     95,9691	-103,0	     97,7368	-103,8
     41,5196	      95,828	-98,3	     98,2327	-104,9
     41,5215	     97,4587	-99,6	     98,7078	-102,9
     41,5235	     97,8615	-102,0	     97,8956	-105,6
     41,5254	     97,3769	-100,4	     97,2944	-98,2
     41,5274	     98,7105	-104,0	     96,4009	-103,1
     41,5293	     97,3798	-102,2	     98,1856	-104,1
     41,5313	     98,1776	-100,8	     98,9228	-102,5
     41,5332	     98,3676	-101,6	     98,7446	-99,5
     41,5352	     99,8769	-103,7	     98,0867	-100,0
     41,5371	     99,0427	-105,5	     97,9262	-104,8
     41,5391	     99,4794	-100,9	     98,9406	-101,0
     41,5411	     98,7668	-102,9	     98,4817	-104,9
      41,543	     97,8615	-99,0	     98,9979	-101,8
      41,545	     99,1394	-101,0	     98,3117	-101,3
     41,5469	     100,154	-100,5	     99,7798	-101,3
     41,5489	     101,172	-101,2	     98,1794	-99,6
     41,5508	     100,985	-102,3	     99,6995	-104,7
     41,5528	     98,5579	-102,1	     101,639	-105,0
     41,5547	     98,0247	-104,3	     100,196	-101,9
     41,5567	     100,679	-100,3	     100,394	-103,6
     41,5587	     102,689	-103,6	     100,063	-99,9
     41,5606	      100,66	-106,0	     100,569	-103,7
     41,5626	     99,5213	-99,5	     100,132	-99,8
     41,5645	     100,634	-101,7	     100,631	-103,7
     41,5665	     100,472	-99,3	     102,202	-101,1
     41,5684	     101,587	-99,8	     101,595	-98,1
     41,5704	     102,623	-102,4	     100,912	-101,4
     41,5723	     101,684	-100,5	     101,418	-100,8
     41,5743	     102,181	-101,0	     102,544	-104,3
     41,5762	     102,064	-98,9	     103,932	-102,9
     41,5782	     101,695	-103,9	     103,674	-99,4
     41,5802	      101,94	-102,0	     102,081	-101,9
     41,5821	     103,066	-100,8	     102,104	-99,8
     41,5841	     103,992	-102,5	     102,312	-101,8
      41,586	     103,525	-98,6	     101,765	-100,8
      41,588	     102,797	-100,8	     103,438	-102,1
     41,5899	     101,114	-100,1	     104,385	-100,3
     41,5919	     103,037	-99,7	     104,521	-99,2
     41,5938	     103,936	-101,8	     104,535	-103,0
     41,5958	      103,75	-101,4	     104,088	-101,0
     41,5978	     102,869	-102,5	      102,83	-103,8
     41,5997	     104,083	-100,6	     104,347	-105,1
     41,6017	      105,05	-98,6	     104,764	-99,8
     41,6036	     105,715	-104,4	     105,592	-100,7
     41,6056	     104,724	-101,9	     104,929	-99,1
     41,6075	     105,258	-100,2	     104,568	-100,6
     41,6095	     105,052	-99,8	     105,641	-103,6
     41,6114	     104,732	-97,9	     106,641	-100,3
     41,6134	     104,708	-103,2	     105,176	-98,2
     41,6153	     105,769	-101,1	     105,146	-100,3
     41,6173	      104,66	-101,2	     106,877	-103,7
     41,6193	     106,956	-99,3	     106,907	-102,6
     41,6212	     106,281	-97,5	     105,183	-101,7
     41,6232	     106,913	-102,3	     106,034	-101,0
     41,6251	     107,013	-100,1	     105,432	-104,8
     41,6271	     108,377	-103,7	     107,308	-99,4
      41,629	     107,802	-104,0	     107,055	-100,4
      41,631	     106,392	-99,3	       107,9	-99,5
     41,6329	     108,181	-101,1	     107,222	-101,4
     41,6349	      108,36	-97,8	     106,175	-102,9
     41,6369	     108,982	-101,3	     108,192	-99,3
     41,6388	     108,659	-101,2	      109,52	-102,1
     41,6408	     106,906	-100,3	     109,016	-99,1
     41,6427	     106,188	-101,8	      108,74	-99,7
     41,6447	      108,05	-96,6	     107,482	-101,0
     41,6466	     109,921	-104,9	     108,782	-100,9
     41,6486	     108,886	-102,5	     109,382	-100,1
     41,6505	      108,78	-101,4	     110,381	-101,0
     41,6525	     108,843	-103,8	     110,781	-101,8
     41,6544	     109,121	-98,2	     111,475	-100,9
     41,6564	     109,786	-99,3	     111,072	-101,2
     41,6584	      110,21	-100,6	     111,207	-101,6
     41,6603	     111,349	-98,7	     110,224	-102,5
     41,6623	     110,521	-102,9	     109,025	-100,5
     41,6642	     110,362	-98,1	     109,375	-103,2
     41,6662	     110,434	-98,6	     111,709	-98,9
     41,6681	     109,441	-100,0	     112,315	-100,0
     41,6701	     109,397	-99,3	     112,025	-100,1
      41,672	     111,356	-103,4	     111,848	-99,6
      41,674	     112,098	-101,9	     111,888	-102,3
      41,676	     113,368	-103,6	     112,534	-100,7
     41,6779	     113,345	-103,2	      112,86	-101,7
     41,6799	     111,987	-98,8	     113,053	-100,0
     41,6818	      111,53	-99,7	     113,521	-98,5
     41,6838	     111,179	-99,0	     112,609	-102,8
     41,6857	     112,573	-99,2	     112,224	-97,2
     41,6877	     113,265	-100,6	     112,124	-100,4
     41,6896	     114,348	-99,0	     114,083	-98,8
     41,6916	     115,734	-101,1	     114,622	-98,6
     41,6936	     114,546	-99,9	     116,356	-103,1
     41,6955	     114,109	-100,2	     116,288	-100,1
     41,6975	     113,425	-103,8	      114,96	-96,5
     41,6994	     114,433	-97,5	     114,235	-101,8
     41,7014	     114,937	-100,7	      115,27	-99,6
     41,7033	     115,044	-98,2	     115,823	-100,9
     41,7053	      115,35	-97,5	     116,241	-101,8
     41,7072	      115,74	-98,7	     115,046	-99,7
     41,7092	     115,789	-99,4	     115,788	-101,6
     41,7111	     115,608	-97,7	     116,797	-99,2
     41,7131	      116,18	-102,3	     116,849	-99,2
     41,7151	     116,561	-98,3	     117,488	-100,1
      41,717	     116,628	-101,2	     116,818	-97,6
      41,719	     117,205	-100,5	     117,742	-101,6
     41,7209	     116,379	-98,3	     118,244	-100,4
     41,7229	     116,489	-100,2	     117,243	-99,8
     41,7248	     117,221	-98,4	     117,917	-100,6
     41,7268	     118,399	-99,4	     118,609	-97,5
     41,7287	     118,462	-98,1	     117,587	-98,5
     41,7307	     117,882	-97,9	      118,53	-98,6
     41,7327	     118,866	-101,8	     118,499	-98,8
     41,7346	     118,353	-98,3	      118,11	-98,7
     41,7366	     118,514	-101,7	     117,695	-99,0
     41,7385	     118,975	-102,5	     118,867	-98,3
     41,7405	     119,462	-97,3	     120,109	-101,5
     41,7424	     119,307	-97,9	      121,13	-98,3
     41,7444	     119,175	-97,8	     120,371	-99,2
     41,7463	     120,756	-97,1	     120,147	-100,8
     41,7483	     122,116	-101,3	     120,685	-98,4
     41,7502	     121,117	-99,2	     120,803	-101,9
     41,7522	     121,488	-100,4	     121,936	-102,0
     41,7542	     121,548	-100,1	      121,27	-97,0
     41,7561	     120,549	-97,0	     122,503	-100,4
     41,7581	     121,609	-98,0	     122,448	-97,0
       41,76	     122,946	-98,5	     122,876	-96,1
      41,762	     122,162	-97,9	     122,725	-99,1
     41,7639	     123,284	-101,2	     122,762	-100,6
     41,7659	     123,122	-100,8	     123,764	-100,6
     41,7678	     121,824	-100,0	     123,889	-100,7
     41,7698	     122,218	-97,8	     123,334	-97,7
     41,7718	     123,673	-94,9	     123,502	-98,5
     41,7737	     123,786	-101,0	     124,405	-97,1
     41,7757	     124,072	-99,9	     124,436	-97,7
     41,7776	     125,455	-100,1	     124,743	-100,1
     41,7796	     125,991	-101,6	     126,308	-97,3
     41,7815	     124,679	-96,5	     126,757	-98,2
     41,7835	     125,709	-97,5	     125,514	-96,2
     41,7854	     124,616	-97,5	     125,761	-96,6
     41,7874	      125,73	-96,9	      126,99	-101,2
     41,7893	     125,438	-98,7	     126,993	-98,4
     41,7913	     126,375	-98,3	     126,417	-99,6
     41,7933	     126,333	-98,1	     127,003	-101,7
     41,7952	     127,695	-100,9	     126,755	-97,5
     41,7972	     127,328	-99,2	     127,181	-99,2
     41,7991	     126,928	-97,8	     129,866	-97,4
     41,8011	     127,478	-99,0	     129,098	-96,0
      41,803	     127,196	-95,5	     129,691	-99,2
      41,805	     127,546	-97,8	     129,472	-97,7
     41,8069	     128,738	-97,2	     128,539	-96,8
     41,8089	     127,217	-94,7	     128,946	-99,9
     41,8109	     129,738	-98,4	      127,99	-96,6
     41,8128	     129,808	-97,2	     128,204	-98,1
     41,8148	     129,071	-97,7	      132,25	-98,7
     41,8167	     130,069	-97,0	     131,735	-95,5
     41,8187	     130,565	-97,2	     131,414	-100,0
     41,8206	     131,152	-98,4	      130,68	-98,0
     41,8226	     130,258	-97,3	     130,169	-97,1
     41,8245	     131,479	-95,3	     132,699	-99,2
     41,8265	     131,303	-100,2	     134,786	-99,5
     41,8284	     130,962	-96,0	     133,623	-96,5
     41,8304	      132,66	-99,0	     132,006	-98,4
     41,8324	     132,643	-99,1	      132,28	-95,7
     41,8343	     133,384	-96,2	     131,984	-96,5
     41,8363	     133,465	-97,7	     134,461	-99,9
     41,8382	     132,783	-95,6	     135,063	-98,6
     41,8402	     134,072	-95,4	     134,548	-98,5
     41,8421	     134,692	-98,5	     135,047	-98,8
     41,8441	     134,186	-97,3	     135,591	-94,9
      41,846	     134,553	-98,7	     135,239	-94,9
      41,848	     135,512	-100,2	     134,252	-96,9
       41,85	     135,309	-98,7	     135,218	-95,7
     41,8519	     135,693	-95,2	       135,6	-100,3
     41,8539	     137,151	-98,2	     137,571	-99,1
     41,8558	      135,74	-94,3	     138,394	-96,7
     41,8578	     136,349	-93,3	     136,927	-98,9
     41,8597	     137,388	-97,7	     137,836	-93,9
     41,8617	     137,327	-95,7	     137,961	-95,0
     41,8636	     137,985	-98,7	     137,649	-98,2
     41,8656	      137,86	-100,1	     138,105	-95,2
     41,8675	     138,712	-95,2	     138,558	-99,8
     41,8695	     139,195	-99,3	     140,965	-99,9
     41,8715	     138,515	-93,9	     141,447	-99,3
     41,8734	     139,284	-94,0	      141,14	-97,0
     41,8754	     138,501	-98,7	     140,134	-96,0
     41,8773	     139,238	-95,3	     139,499	-94,2
     41,8793	     140,709	-97,1	     139,337	-95,8
     41,8812	     141,249	-99,3	     140,725	-96,1
     41,8832	     140,056	-94,4	     141,968	-95,4
     41,8851	      140,36	-94,9	     142,697	-98,1
     41,8871	     141,494	-95,8	     143,107	-98,8
     41,8891	     142,517	-94,1	     142,954	-95,1
      41,891	     143,263	-99,9	     143,027	-97,5
      41,893	     143,083	-96,4	     142,958	-93,2
     41,8949	     143,131	-96,0	     143,708	-94,2
     41,8969	     143,818	-98,3	     143,575	-96,1
     41,8988	     143,308	-96,1	     143,565	-94,8
     41,9008	     144,332	-94,5	     144,309	-97,7
     41,9027	     144,142	-95,9	     145,622	-97,9
     41,9047	     144,117	-94,8	     145,567	-93,8
     41,9066	     144,172	-94,8	     146,125	-97,7
     41,9086	     145,044	-95,8	     147,205	-96,3
     41,9106	      146,39	-95,2	     146,964	-93,0
     41,9125	     147,373	-97,0	     147,529	-94,8
     41,9145	     146,841	-97,6	     147,748	-95,0
     41,9164	     147,532	-93,8	      147,23	-95,6
     41,9184	     148,357	-94,7	     148,272	-98,7
     41,9203	     147,177	-92,8	     149,578	-96,5
     41,9223	     147,113	-94,4	      148,63	-93,6
     41,9242	     147,716	-97,8	      148,21	-95,6
     41,9262	     149,358	-96,0	     148,886	-93,5
     41,9282	     150,479	-95,9	      149,18	-94,3
     41,9301	     151,859	-95,8	      150,45	-97,0
     41,9321	     150,364	-97,3	     151,382	-95,6
      41,934	     149,045	-93,9	     152,415	-95,9
      41,936	     150,411	-94,8	     152,604	-96,8
     41,9379	     149,856	-92,9	     152,981	-93,8
     41,9399	     149,757	-92,1	     152,169	-93,2
     41,9418	     151,323	-98,2	     152,629	-96,4
     41,9438	     151,972	-95,6	     153,973	-97,0
     41,9457	     153,407	-96,1	     154,205	-95,3
     41,9477	     152,198	-98,6	     154,226	-94,4
     41,9497	     151,288	-92,4	     154,326	-93,7
     41,9516	     152,944	-92,4	       154,3	-95,3
     41,9536	     152,731	-94,4	     155,162	-97,0
     41,9555	      153,49	-91,5	     157,168	-95,2
     41,9575	     155,214	-95,8	     157,431	-92,8
     41,9594	     155,013	-97,9	      157,77	-94,3
     41,9614	     156,804	-93,5	     157,298	-91,3
     41,9633	     157,542	-95,4	     156,401	-92,6
     41,9653	     158,229	-91,6	     159,087	-93,8
     41,9673	     157,556	-92,1	     158,562	-92,6
     41,9692	     157,276	-95,3	     159,621	-94,6
     41,9712	     157,756	-93,1	     160,821	-96,8
     41,9731	     159,753	-92,9	     160,307	-95,9
     41,9751	     160,537	-94,7	     159,878	-93,8
      41,977	     159,585	-93,6	     160,546	-96,3
      41,979	     158,804	-92,9	     159,942	-92,4
     41,9809	     159,705	-94,1	     162,357	-93,3
     41,9829	     160,023	-93,1	     164,126	-93,3
     41,9848	     160,294	-92,0	     162,988	-91,3
     41,9868	     161,107	-93,7	     162,443	-95,2
     41,9888	     161,792	-93,3	     162,761	-95,3
     41,9907	     163,051	-92,0	     163,238	-93,4
     41,9927	     162,891	-94,5	     165,082	-93,3
     41,9946	     162,499	-93,3	     164,904	-92,2
     41,9966	      163,43	-92,2	     165,424	-91,8
     41,9985	      164,36	-93,5	      165,88	-92,3
     42,0005	      164,94	-91,9	     166,236	-95,2
     42,0024	     165,054	-91,4	     167,829	-93,2
     42,0044	     165,686	-92,8	     166,717	-91,3
     42,0064	     165,887	-89,1	     167,439	-93,9
     42,0083	     166,534	-88,6	     168,496	-91,2
     42,0103	     167,166	-95,8	     169,043	-92,8
     42,0122	     166,691	-93,1	     169,989	-95,1
     42,0142	     168,867	-94,1	     170,796	-92,4
     42,0161	     169,196	-94,2	     170,196	-93,7
     42,0181	     168,815	-92,1	     170,507	-93,6
       42,02	     168,879	-90,6	     170,189	-88,9
      42,022	      169,66	-92,2	     170,023	-90,7
     42,0239	     169,232	-93,1	     171,453	-92,8
     42,0259	     169,753	-91,4	     172,493	-90,2
     42,0279	     170,485	-92,9	     173,085	-92,8
     42,0298	     171,444	-91,6	     174,273	-93,9
     42,0318	     172,926	-91,4	     173,552	-90,1
     42,0337	     173,819	-93,9	     174,705	-91,3
     42,0357	     173,333	-92,4	     174,768	-92,0
     42,0376	     174,408	-92,9	     175,161	-93,1
     42,0396	     174,494	-93,9	     175,685	-91,6
     42,0415	     175,017	-86,9	     176,364	-92,0
     42,0435	      176,12	-90,3	     176,671	-89,3
     42,0455	     175,625	-92,5	     177,713	-90,1
     42,0474	     175,634	-90,7	      179,83	-93,6
     42,0494	     177,877	-92,7	      179,65	-91,9
     42,0513	     177,667	-93,9	     180,084	-90,1
     42,0533	     178,038	-92,7	     181,378	-94,3
     42,0552	     178,136	-90,6	       181,7	-91,4
     42,0572	     179,073	-91,6	     181,146	-90,0
     42,0591	     179,809	-90,5	     182,023	-90,2
     42,0611	     180,505	-90,4	     182,555	-88,0
      42,063	     181,543	-92,0	     183,097	-89,2
      42,065	     181,372	-86,7	     184,029	-93,5
      42,067	     181,413	-88,1	     185,105	-91,2
     42,0689	     182,739	-93,2	     184,354	-90,1
     42,0709	     182,677	-90,9	     184,995	-90,4
     42,0728	     183,448	-89,0	     186,534	-90,5
     42,0748	     184,748	-93,2	     186,088	-89,3
     42,0767	     185,279	-93,4	     186,314	-92,6
     42,0787	     185,372	-89,2	     187,093	-93,0
     42,0806	     186,647	-91,6	     188,539	-87,6
     42,0826	     187,238	-88,9	     189,429	-90,3
     42,0846	     187,047	-88,9	     191,283	-88,6
     42,0865	     187,012	-90,7	     191,064	-86,2
     42,0885	     188,789	-89,1	     191,771	-89,5
     42,0904	     189,918	-90,6	     191,225	-91,5
     42,0924	     190,512	-91,3	     192,375	-87,7
     42,0943	     190,605	-88,5	     193,061	-88,2
     42,0963	     190,026	-88,6	     192,798	-89,4
     42,0982	     191,271	-89,2	     194,242	-89,4
     42,1002	     191,607	-87,9	     194,341	-88,4
     42,1021	     192,786	-87,8	      194,54	-91,0
     42,1041	     193,547	-90,1	     196,168	-91,3
     42,1061	     194,188	-88,3	     198,672	-87,7
      42,108	     194,361	-87,2	      199,75	-88,4
       42,11	     195,149	-87,3	     200,468	-85,9
     42,1119	     195,891	-88,1	      198,31	-85,4
     42,1139	     195,607	-86,7	     200,052	-90,8
     42,1158	     198,206	-92,3	     200,548	-89,9
     42,1178	     198,548	-89,8	     200,896	-88,4
     42,1197	     198,057	-87,2	     201,873	-90,3
     42,1217	     199,681	-87,5	     203,419	-89,5
     42,1237	     199,882	-89,4	     203,742	-87,3
     42,1256	     201,099	-86,1	     203,923	-89,2
     42,1276	     201,024	-84,7	      204,67	-89,6
     42,1295	     200,674	-90,2	     204,583	-85,7
     42,1315	     200,493	-86,5	     205,109	-85,6
     42,1334	      201,85	-87,4	         208	-87,5
     42,1354	     203,803	-86,9	     207,056	-86,6
     42,1373	     204,971	-86,2	      207,49	-88,4
     42,1393	     206,944	-85,9	      207,41	-88,4
     42,1413	     208,279	-86,2	      208,42	-84,8
     42,1432	     209,211	-88,7	     209,404	-87,7
     42,1452	     209,429	-86,3	     211,382	-90,4
     42,1471	     210,329	-86,7	     212,392	-88,4
     42,1491	     209,234	-85,7	      212,44	-86,8
      42,151	     209,496	-83,6	     213,588	-88,0
      42,153	     210,185	-87,3	     213,442	-84,5
     42,1549	     210,376	-86,8	     214,251	-84,3
     42,1569	     210,116	-82,1	     214,874	-87,2
     42,1588	     210,781	-83,4	     215,388	-87,6
     42,1608	     211,895	-88,0	     217,578	-85,0
     42,1628	     212,702	-84,7	     218,428	-84,0
     42,1647	     214,418	-83,6	     220,115	-88,3
     42,1667	     215,278	-88,2	     221,366	-85,8
     42,1686	      216,26	-87,3	     222,075	-84,0
     42,1706	     217,765	-84,3	     222,032	-86,2
     42,1725	     218,831	-85,0	     222,212	-87,1
     42,1745	     218,589	-85,4	     223,661	-84,9
     42,1764	     220,117	-82,8	     224,413	-83,6
     42,1784	     222,691	-82,1	     225,119	-86,7
     42,1804	     223,686	-85,2	     226,007	-86,0
     42,1823	     223,094	-82,9	     227,268	-85,8
     42,1843	     225,445	-85,8	     227,712	-84,7
     42,1862	     226,586	-86,4	     228,808	-80,8
     42,1882	     227,074	-83,6	     229,523	-81,2
     42,1901	      226,22	-83,9	     231,072	-86,2
     42,1921	     226,772	-84,3	     232,238	-84,3
      42,194	     227,261	-83,3	     232,575	-83,4
      42,196	      227,72	-82,6	     233,031	-84,4
     42,1979	     229,106	-83,8	     233,454	-84,7
     42,1999	     228,765	-85,6	     235,261	-83,5
     42,2019	     229,529	-80,6	     235,927	-84,6
     42,2038	     230,669	-81,5	     236,574	-86,4
     42,2058	     232,931	-81,9	     237,418	-84,1
     42,2077	     233,388	-79,6	     237,479	-80,4
     42,2097	     235,083	-82,4	     237,607	-85,0
     42,2116	     236,033	-83,2	     239,984	-81,7
     42,2136	     236,497	-81,6	     241,393	-81,1
     42,2155	      236,45	-80,9	     241,817	-82,0
     42,2175	     238,536	-82,5	     245,339	-80,5
     42,2195	     238,568	-82,2	     245,432	-80,0
     42,2214	     240,414	-80,2	     246,977	-83,6
     42,2234	     241,142	-82,1	     246,563	-83,5
     42,2253	     240,329	-84,0	     246,823	-81,5
     42,2273	     241,276	-78,1	     249,672	-81,8
     42,2292	     242,458	-79,3	     250,142	-80,5
     42,2312	     243,698	-79,1	     251,569	-82,1
     42,2331	     244,933	-79,1	     252,162	-82,0
     42,2351	     246,389	-78,6	     254,315	-82,0
      42,237	     247,437	-79,2	     255,738	-82,7
      42,239	     247,965	-79,4	      256,13	-79,2
      42,241	     248,753	-77,7	      256,16	-80,2
     42,2429	     251,039	-82,2	     257,058	-81,0
     42,2449	     251,173	-82,0	     257,859	-78,5
     42,2468	     252,843	-78,9	     258,698	-78,2
     42,2488	      253,29	-79,8	     260,688	-80,1
     42,2507	     254,604	-81,3	     262,133	-79,5
     42,2527	     254,919	-78,8	     262,657	-77,6
     42,2546	     257,188	-77,6	     264,035	-79,5
     42,2566	     257,361	-79,4	      264,41	-78,4
     42,2586	      257,63	-76,8	     265,893	-79,0
     42,2605	     259,204	-76,8	     267,442	-76,6
     42,2625	     260,381	-77,1	      267,71	-78,7
     42,2644	     261,915	-78,8	     269,199	-76,6
     42,2664	     262,325	-75,7	     270,279	-77,3
     42,2683	     262,488	-73,7	     271,632	-78,4
     42,2703	     263,427	-79,6	     273,874	-80,6
     42,2722	     264,843	-78,6	     275,263	-74,7
     42,2742	     265,707	-75,4	     276,183	-75,9
     42,2761	      268,65	-76,7	      277,59	-76,6
     42,2781	     269,859	-78,0	     279,491	-75,8
     42,2801	     271,543	-76,2	     279,377	-76,1
      42,282	     272,682	-77,6	     281,254	-77,1
      42,284	     273,541	-78,3	     282,641	-76,1
     42,2859	     273,808	-74,4	     284,437	-72,9
     42,2879	     274,848	-73,6	     284,601	-73,7
     42,2898	     276,326	-76,2	     286,315	-77,5
     42,2918	     278,207	-74,9	     287,425	-76,6
     42,2937	     279,159	-72,7	      288,88	-74,3
     42,2957	     279,785	-71,5	     288,855	-74,8
     42,2977	      281,19	-75,8	     291,664	-75,5
     42,2996	     282,235	-73,6	     293,166	-73,4
     42,3016	     283,322	-71,6	     294,095	-74,1
     42,3035	     284,148	-75,5	     295,949	-76,0
     42,3055	       284,7	-73,6	     297,295	-76,5
     42,3074	     286,007	-73,5	     298,199	-71,9
     42,3094	     287,951	-74,3	      299,46	-72,0
     42,3113	     289,152	-74,1	     301,019	-74,9
     42,3133	     290,681	-73,7	     302,141	-73,5
     42,3153	     291,939	-71,8	     303,553	-70,3
     42,3172	     294,571	-73,6	     305,648	-73,0
     42,3192	     295,192	-73,9	     307,453	-71,4
     42,3211	     296,621	-69,7	     308,359	-69,1
     42,3231	     298,879	-70,3	      308,84	-70,5
      42,325	     300,009	-72,4	     310,531	-71,4
      42,327	     300,806	-71,5	     313,642	-69,8
     42,3289	     302,247	-70,0	     313,952	-67,4
     42,3309	     304,665	-69,9	     316,076	-72,2
     42,3328	     305,015	-69,0	     317,527	-71,4
     42,3348	      306,55	-68,7	     318,889	-69,0
     42,3368	     308,322	-68,9	     319,594	-68,3
     42,3387	     308,959	-70,2	     320,533	-69,8
     42,3407	     310,563	-67,4	     323,192	-69,8
     42,3426	     312,236	-66,8	     324,459	-69,1
     42,3446	     313,427	-70,7	     325,859	-70,1
     42,3465	     313,087	-68,4	     327,525	-70,3
     42,3485	     315,302	-66,0	     329,563	-68,2
     42,3504	     316,811	-67,5	     330,836	-67,8
     42,3524	     318,061	-70,5	      331,86	-68,0
     42,3544	     318,869	-69,4	     334,179	-66,0
     42,3563	     320,334	-67,4	     335,716	-64,4
     42,3583	     322,685	-67,8	     336,543	-65,1
     42,3602	     323,363	-66,4	     338,916	-67,3
     42,3622	     323,696	-67,0	     341,061	-67,4
     42,3641	     325,811	-64,1	     342,028	-61,5
     42,3661	     326,967	-66,5	     342,567	-64,8
      42,368	     327,244	-65,6	     344,711	-63,4
       42,37	     328,297	-63,1	     346,345	-62,1
     42,3719	     330,453	-63,7	     347,788	-63,6
     42,3739	     332,276	-64,6	     348,553	-64,9
     42,3759	     333,741	-65,2	     349,855	-63,4
     42,3778	     335,589	-61,9	     352,044	-61,2
     42,3798	     337,931	-59,7	      353,03	-61,1
     42,3817	     338,303	-64,8	     354,815	-64,6
     42,3837	     339,282	-62,8	     355,704	-62,5
     42,3856	     341,807	-60,8	      358,01	-61,8
     42,3876	     343,491	-61,6	     359,382	-60,5
     42,3895	      344,56	-63,2	     361,068	-64,1
     42,3915	     346,117	-60,7	     362,496	-62,8
     42,3935	     348,444	-61,0	     364,769	-61,1
     42,3954	     348,552	-61,2	     365,896	-60,5
     42,3974	     349,685	-61,3	     367,906	-59,0
     42,3993	     351,786	-59,5	     369,774	-58,7
     42,4013	     353,395	-63,0	     369,349	-59,2
     42,4032	     352,633	-62,2	     370,941	-59,9
     42,4052	     354,208	-58,0	     374,469	-56,6
     42,4071	     356,265	-59,0	     376,106	-56,9
     42,4091	     359,143	-60,3	     376,198	-57,8
      42,411	     360,217	-60,6	     377,859	-58,7
      42,413	     362,455	-55,4	     379,565	-54,9
      42,415	     363,533	-54,5	     380,074	-52,9
     42,4169	      364,49	-59,5	     381,377	-56,7
     42,4189	     366,009	-58,4	     382,909	-55,7
     42,4208	     369,067	-53,3	     383,767	-56,3
     42,4228	     370,451	-54,2	     385,714	-53,7
     42,4247	     371,921	-56,0	     387,824	-53,6
     42,4267	     373,905	-55,4	      389,69	-54,1
     42,4286	     375,185	-53,4	     390,821	-54,6
     42,4306	     376,042	-53,1	     391,928	-50,9
     42,4326	     376,906	-53,6	     392,828	-52,2
     42,4345	     378,727	-54,5	       395,8	-53,4
     42,4365	     380,934	-52,1	     397,155	-51,6
     42,4384	     381,765	-52,2	     397,667	-53,2
     42,4404	     383,105	-53,7	     397,977	-52,6
     42,4423	     383,764	-51,4	     400,733	-50,1
     42,4443	     384,316	-49,2	     401,304	-49,1
     42,4462	     387,935	-52,7	     402,606	-52,0
     42,4482	     389,025	-50,6	     403,827	-53,4
     42,4501	     390,544	-50,7	     406,035	-49,4
     42,4521	     391,281	-48,9	     406,573	-48,9
     42,4541	     392,782	-51,6	     407,082	-51,2
      42,456	     394,272	-50,0	     408,603	-50,7
      42,458	       395,8	-48,8	     410,317	-47,7
     42,4599	     397,408	-48,2	     410,879	-47,9
     42,4619	     399,661	-50,4	     411,259	-48,1
     42,4638	     400,225	-49,8	     412,102	-49,2
     42,4658	     401,216	-47,5	     413,282	-44,4
     42,4677	     403,105	-47,1	     414,575	-44,1
     42,4697	     403,726	-49,9	     414,802	-47,6
     42,4717	     404,694	-47,8	     416,231	-46,6
     42,4736	     405,869	-44,3	     417,307	-43,0
     42,4756	     406,728	-45,3	     418,335	-42,2
     42,4775	     408,138	-47,1	     418,402	-43,8
     42,4795	      408,99	-45,8	     418,546	-44,9
     42,4814	     410,432	-43,5	     420,131	-41,8
     42,4834	     411,076	-43,4	     421,005	-41,8
     42,4853	     410,996	-44,1	     421,587	-41,2
     42,4873	     412,537	-42,9	     423,235	-43,4
     42,4892	     414,333	-39,7	     424,798	-38,8
     42,4912	     415,125	-42,5	     426,173	-38,6
     42,4932	     416,607	-41,1	     426,395	-42,4
     42,4951	      417,12	-40,5	     427,062	-40,7
     42,4971	     416,932	-40,0	     427,731	-36,9
      42,499	     418,903	-39,8	     427,162	-36,6
      42,501	     419,363	-40,2	     428,137	-38,8
     42,5029	     420,929	-40,1	     429,112	-39,6
     42,5049	     421,728	-36,9	     429,971	-35,7
     42,5068	     422,688	-37,9	     430,841	-35,4
     42,5088	     421,533	-38,1	     431,859	-39,2
     42,5108	     423,085	-37,7	      431,67	-35,9
     42,5127	     424,124	-35,0	     432,507	-36,2
     42,5147	     424,147	-36,0	     432,236	-33,6
     42,5166	     425,537	-36,9	     432,074	-33,0
     42,5186	     426,402	-35,3	     433,185	-36,6
     42,5205	     428,024	-34,3	     435,181	-32,9
     42,5225	     430,209	-35,2	     434,894	-30,8
     42,5244	     429,933	-35,7	     435,574	-35,9
     42,5264	     430,247	-34,6	     435,117	-34,9
     42,5283	     431,765	-34,4	      435,91	-31,7
     42,5303	     432,428	-33,0	      435,53	-30,9
     42,5323	     432,603	-35,3	     436,465	-34,4
     42,5342	     433,251	-32,7	     436,199	-32,2
     42,5362	     433,355	-29,6	     438,066	-30,5
     42,5381	     434,349	-33,4	     438,614	-29,8
     42,5401	     434,209	-31,5	     437,854	-34,3
      42,542	     435,123	-30,4	      437,91	-31,5
      42,544	     434,299	-29,3	     438,128	-29,6
     42,5459	     435,599	-30,6	     436,988	-28,3
     42,5479	     436,978	-29,8	     436,742	-32,4
     42,5499	     437,873	-29,5	     436,972	-30,2
     42,5518	     438,639	-26,9	     437,563	-29,0
     42,5538	     439,121	-29,7	     437,381	-25,5
     42,5557	     437,341	-31,9	     437,799	-25,3
     42,5577	     438,432	-28,6	     438,861	-29,1
     42,5596	     438,475	-26,0	     439,201	-28,6
     42,5616	     440,151	-29,0	     439,559	-25,4
     42,5635	     439,579	-27,5	     438,258	-25,3
     42,5655	      438,62	-25,8	     438,219	-26,5
     42,5674	     438,253	-25,3	     438,675	-25,7
     42,5694	     438,547	-27,3	      438,98	-23,8
     42,5714	     438,369	-26,7	     438,548	-23,7
     42,5733	     438,623	-25,6	      438,41	-25,5
     42,5753	     439,166	-25,5	     437,587	-24,7
     42,5772	     440,636	-24,8	     437,877	-24,1
     42,5792	     440,068	-24,9	     437,483	-21,7
     42,5811	     439,466	-23,5	     437,404	-24,2
     42,5831	     440,225	-22,8	     437,066	-24,1
      42,585	     439,598	-21,7	     437,278	-20,8
      42,587	     439,074	-23,5	     437,182	-20,8
      42,589	     438,851	-20,1	     437,213	-21,9
     42,5909	     439,227	-20,9	     437,792	-24,1
     42,5929	     439,695	-19,8	     437,219	-19,4
     42,5948	     439,744	-22,5	      436,44	-17,3
     42,5968	     438,969	-22,2	     435,253	-20,1
     42,5987	     437,366	-20,7	     434,581	-21,3
     42,6007	     438,534	-17,9	     435,627	-19,5
     42,6026	     438,341	-21,6	     435,321	-16,4
     42,6046	     437,401	-19,5	     435,144	-18,1
     42,6065	     436,202	-18,1	     432,903	-20,0
     42,6085	      436,65	-17,3	     433,416	-17,4
     42,6105	     436,639	-18,4	     433,323	-15,0
     42,6124	     437,803	-17,8	     432,617	-15,9
     42,6144	     436,292	-17,9	     431,861	-17,3
     42,6163	     435,818	-15,2	     432,243	-16,6
     42,6183	     435,445	-16,2	     431,686	-15,0
     42,6202	     434,227	-17,3	     430,665	-15,5
     42,6222	     433,355	-14,4	     428,633	-16,1
     42,6241	     434,213	-13,0	      428,79	-15,4
     42,6261	     433,738	-12,7	     428,027	-15,2
     42,6281	     432,501	-15,4	     427,795	-13,3
       42,63	     431,654	-16,3	     426,365	-15,1
      42,632	     430,937	-14,4	     426,153	-13,4
     42,6339	     430,642	-12,7	     425,133	-15,8
     42,6359	     429,535	-13,5	     424,668	-13,6
     42,6378	     428,421	-12,8	     424,751	-11,2
     42,6398	     428,974	-13,3	     423,549	-12,3
     42,6417	     428,122	-11,7	     423,737	-12,7
     42,6437	     428,715	-12,0	     422,858	-12,4
     42,6456	      428,94	-12,5	       423,4	-9,7
     42,6476	     427,587	-8,3	      421,73	-9,0
     42,6496	     427,364	-9,8	     421,377	-12,7
     42,6515	     425,535	-9,4	     421,176	-11,7
     42,6535	       424,5	-10,1	     421,373	-8,6
     42,6554	     424,954	-11,8	     419,329	-7,1
     42,6574	     424,668	-8,5	     418,781	-9,6
     42,6593	     424,152	-6,3	     418,063	-9,0
     42,6613	     422,945	-7,8	     417,764	-7,8
     42,6632	     421,278	-9,1	     415,732	-6,7
     42,6652	     419,911	-6,9	      414,06	-9,1
     42,6672	     420,067	-6,5	     412,998	-7,2
     42,6691	     418,408	-6,4	     414,179	-8,0
     42,6711	     418,329	-8,1	     413,392	-5,4
      42,673	     416,904	-7,0	     411,485	-5,9
      42,675	     415,579	-4,7	     410,028	-5,9
     42,6769	     415,255	-5,6	     409,887	-6,8
     42,6789	     416,099	-4,8	     408,426	-5,7
     42,6808	     414,526	-7,2	      406,89	-4,5
     42,6828	      413,74	-6,1	     406,362	-3,9
     42,6847	     412,813	-4,7	     405,204	-5,3
     42,6867	     412,143	-4,6	     405,316	-4,4
     42,6887	     411,101	-7,4	     405,187	-0,3
     42,6906	     411,443	-5,1	     404,975	-1,3
     42,6926	     410,647	-2,7	     402,719	-4,6
     42,6945	     408,785	-2,6	     402,135	-1,2
     42,6965	     407,373	-5,1	     402,454	 0,3
     42,6984	     406,715	-3,8	     400,784	-0,5
     42,7004	     405,571	-2,4	     398,373	-1,6
     42,7023	     405,291	 0,2	     398,527	-1,7
     42,7043	     403,999	 0,6	     397,124	-0,1
     42,7063	     402,938	-3,4	     396,229	 1,1
     42,7082	     402,626	-1,8	     394,956	 0,4
     42,7102	     401,112	 1,2	      395,02	 0,2
     42,7121	     400,571	 2,7	     394,021	 0,7
     42,7141	     398,899	-0,5	     393,713	 0,5
      42,716	     398,575	-2,0	     392,281	 3,1
      42,718	     398,164	 1,4	     391,132	 1,5
     42,7199	     397,934	 3,9	     389,666	 0,4
     42,7219	     396,593	 1,4	     389,132	 1,6
     42,7239	     396,376	 1,2	     388,396	 0,8
     42,7258	     395,019	 2,6	     387,431	 3,2
     42,7278	     393,862	 4,2	     386,166	 4,1
     42,7297	     392,133	 5,0	     384,447	 1,8
     42,7317	     391,045	 3,1	     384,867	 1,1
     42,7336	     389,565	 3,3	     384,541	 5,4
     42,7356	     388,399	 3,9	     384,004	 3,7
     42,7375	     385,972	 5,0	      380,77	 2,4
     42,7395	     386,567	 5,5	     380,551	 2,9
     42,7414	     385,987	 6,2	      378,46	 5,2
     42,7434	     385,126	 4,3	     378,464	 4,3
     42,7454	     384,688	 4,4	     377,623	 4,1
     42,7473	     384,728	 7,8	     377,146	 4,9
     42,7493	     382,093	 9,0	     375,679	 4,0
     42,7512	     381,181	 6,1	     374,204	 3,7
     42,7532	     379,937	 7,2	     375,759	 6,3
     42,7551	     378,379	 8,3	     374,607	 6,2
     42,7571	     377,695	 8,9	     373,202	 3,2
      42,759	     375,772	 7,0	     372,208	 3,8
      42,761	     374,435	 6,2	     371,039	 6,6
      42,763	     373,985	 8,0	     369,806	 6,4
     42,7649	      373,78	 9,2	     368,366	 5,2
     42,7669	      372,22	 8,1	     366,205	 5,1
     42,7688	      371,47	 9,2	     365,444	 6,6
     42,7708	     370,406	 8,0	     364,339	 6,0
     42,7727	     368,519	 8,4	     363,341	 8,5
     42,7747	     368,638	 8,4	     361,956	 7,2
     42,7766	     366,587	10,4	     360,135	 7,5
     42,7786	     365,158	 9,0	     359,597	 8,5
     42,7805	      363,47	 7,3	     359,141	12,1
     42,7825	     363,263	 7,1	     358,044	 9,6
     42,7845	     362,457	 9,8	     357,789	 8,5
     42,7864	     361,546	 9,4	      356,32	 7,3
     42,7884	     359,597	 7,5	     354,835	 8,9
     42,7903	     359,857	 8,5	      353,69	12,0
     42,7923	     358,764	10,0	      353,67	12,5
     42,7942	     357,647	11,8	     351,941	10,7
     42,7962	     356,945	10,0	     349,845	10,7
     42,7981	     356,099	 9,9	     348,822	12,8
     42,8001	     354,764	10,4	      348,51	11,8
     42,8021	     353,921	10,6	     346,927	13,8
      42,804	     353,658	12,7	     346,733	12,1
      42,806	     352,106	14,5	     345,425	11,5
     42,8079	     348,973	 8,5	     344,896	11,1
     42,8099	     347,213	11,5	      343,28	14,6
     42,8118	      347,16	13,4	     342,975	11,7
     42,8138	     347,132	16,8	     342,005	10,7
     42,8157	     345,043	11,2	         342	10,2
     42,8177	     344,086	13,5	     340,611	13,9
     42,8196	     343,072	13,9	     339,799	12,4
     42,8216	     342,047	15,6	     338,555	12,8
     42,8236	     340,741	16,7	     337,451	12,9
     42,8255	     338,066	16,4	     337,081	11,2
     42,8275	     337,951	15,0	     336,726	11,1
     42,8294	     336,875	13,4	     334,946	14,2
     42,8314	     337,307	13,9	     333,926	14,4
     42,8333	     336,757	16,9	     332,412	16,4
     42,8353	     335,693	16,0	     330,502	13,1
     42,8372	     332,777	14,7	     329,366	14,3
     42,8392	      332,02	13,8	     329,276	16,7
     42,8412	     330,277	18,8	     328,382	17,4
     42,8431	     329,528	17,0	     327,539	15,8
     42,8451	     329,894	14,8	     326,639	15,4
      42,847	     330,996	14,0	     324,924	15,7
      42,849	     331,129	16,5	     323,304	18,3
     42,8509	     329,999	14,3	     323,186	17,9
     42,8529	     328,227	17,9	     322,294	18,8
     42,8548	     328,144	16,1	     320,802	15,1
     42,8568	     326,022	18,0	     320,777	15,2
     42,8587	     322,996	16,6	     319,241	18,4
     42,8607	     320,253	17,2	     316,829	19,0
     42,8627	     320,466	18,5	     315,859	18,1
     42,8646	     319,553	16,4	     316,439	16,8
     42,8666	     318,554	18,5	     316,506	15,6
     42,8685	      318,32	18,7	     316,255	17,8
     42,8705	     317,371	19,0	     315,247	16,7
     42,8724	     316,888	20,6	     312,986	16,9
     42,8744	     315,717	21,1	     313,809	18,5
     42,8763	     315,248	21,3	     312,923	15,5
     42,8783	     314,674	18,6	     311,957	18,4
     42,8803	     312,201	18,2	     309,937	18,8
     42,8822	     312,423	23,8	     307,576	19,3
     42,8842	     311,739	21,2	     306,055	18,5
     42,8861	     309,329	20,3	     305,196	19,6
     42,8881	     308,532	19,3	     305,533	20,1
       42,89	     308,154	20,0	     304,507	22,3
      42,892	      307,33	18,9	     303,187	21,1
     42,8939	     305,132	21,8	     303,986	21,5
     42,8959	     305,491	21,5	     301,477	19,1
     42,8979	     303,107	18,8	     301,302	19,1
     42,8998	     302,473	18,9	     301,053	24,1
     42,9018	     300,872	21,3	       300,6	22,2
     42,9037	     300,926	21,9	      297,35	22,0
     42,9057	     299,278	20,6	     296,841	21,0
     42,9076	     299,308	22,6	     297,258	18,0
     42,9096	     298,726	20,7	     295,303	19,5
     42,9115	     297,634	22,0	     294,983	20,3
     42,9135	     296,248	22,6	     294,706	21,5
     42,9154	     295,705	24,0	     293,287	22,0
     42,9174	     295,114	25,0	     291,786	19,0
     42,9194	     293,518	22,6	     292,169	20,3
     42,9213	     291,859	22,2	      291,77	21,5
     42,9233	     291,957	24,4	     290,174	23,6
     42,9252	     290,783	24,7	     287,596	20,5
     42,9272	     289,927	25,5	     286,427	23,2
     42,9291	     288,516	22,7	     284,905	21,5
     42,9311	     288,132	21,9	      284,77	23,2
      42,933	     288,338	22,5	      284,87	26,1
      42,935	     286,681	23,7	     285,791	25,6
      42,937	     287,015	25,0	     283,676	24,0
     42,9389	      286,06	22,9	     283,637	22,8
     42,9409	     285,856	23,7	     282,512	23,9
     42,9428	     284,478	22,5	     283,131	23,3
     42,9448	     283,579	23,3	     281,163	23,3
     42,9467	     282,977	23,9	     279,306	25,3
     42,9487	     282,298	26,8	     279,041	24,5
     42,9506	     280,467	24,5	     277,582	21,3
     42,9526	     278,326	26,7	     275,928	21,7
     42,9545	     277,117	26,3	     275,948	23,9
     42,9565	     275,465	26,5	     274,522	25,3
     42,9585	     275,195	28,6	      274,77	24,7
     42,9604	     274,945	28,0	     273,697	24,8
     42,9624	     273,712	26,6	     271,168	24,2
     42,9643	     272,849	23,8	     269,666	25,0
     42,9663	     272,753	27,5	     269,953	26,7
     42,9682	     272,438	26,6	     270,185	28,9
     42,9702	     270,927	28,1	     268,929	25,7
     42,9721	     270,419	27,8	     268,004	26,2
     42,9741	     269,639	24,4	     267,258	27,0
     42,9761	     270,475	24,0	     266,727	25,4
      42,978	     269,703	26,4	     265,265	25,3
       42,98	     268,368	28,7	     265,342	27,4
     42,9819	     266,819	26,6	     263,585	25,6
     42,9839	     267,188	28,3	     263,267	25,0
     42,9858	     265,487	26,5	     263,883	24,6
     42,9878	     265,049	27,4	     263,772	28,2
     42,9897	     263,418	29,5	     263,118	28,5
     42,9917	     262,535	31,6	     261,262	26,2
     42,9936	     260,662	29,6	     261,218	28,5
     42,9956	      259,75	27,8	     259,924	25,5
     42,9976	     258,888	29,2	     258,773	26,4
     42,9995	     258,556	27,6	     256,999	29,7
     43,0015	     258,858	29,6	     256,949	30,0
     43,0034	     258,464	29,9	     256,665	29,3
     43,0054	       256,3	29,0	     255,922	28,3
     43,0073	     255,778	27,7	     255,228	27,7
     43,0093	     253,893	28,7	     255,625	26,9
     43,0112	     251,986	27,4	     253,945	26,5
     43,0132	      252,62	28,6	     251,614	29,4
     43,0152	     253,695	30,7	     252,038	28,8
     43,0171	     253,271	30,8	     250,625	25,0
     43,0191	     251,679	28,8	     248,667	24,9
      43,021	     249,935	29,4	     248,881	30,0
      43,023	     249,956	30,6	     248,857	28,7
     43,0249	     248,182	30,4	     248,133	30,7
     43,0269	     247,555	32,8	     247,302	29,8
     43,0288	     246,564	29,3	     246,265	30,3
     43,0308	     245,321	29,2	     245,109	29,9
     43,0327	     244,866	26,6	     245,179	29,0
     43,0347	     244,187	30,0	     244,763	32,4
     43,0367	     244,012	29,4	     245,648	31,7
     43,0386	     243,904	30,3	     243,785	30,9
     43,0406	     242,493	31,2	     243,269	27,4
     43,0425	     242,462	28,0	     241,784	28,7
     43,0445	     242,109	29,8	     241,344	28,4
     43,0464	     241,452	32,0	     241,696	30,4
     43,0484	     239,462	32,7	     240,426	31,3
     43,0503	     238,754	34,0	     239,462	31,1
     43,0523	     238,472	34,2	     237,742	28,8
     43,0543	      239,25	30,4	     237,249	30,4
     43,0562	     237,278	31,4	     236,701	29,1
     43,0582	     235,839	29,5	     235,812	31,5
     43,0601	     236,297	31,9	     235,138	33,2
     43,0621	     235,475	31,9	     234,877	33,7
      43,064	     235,448	31,1	     235,728	32,1
      43,066	      235,02	33,1	     234,946	29,6
     43,0679	      233,39	30,0	     233,057	28,6
     43,0699	      232,67	30,9	     234,051	32,1
     43,0718	     231,919	32,8	     232,366	30,2
     43,0738	     231,135	34,8	     232,006	31,1
     43,0758	     230,574	34,5	     229,753	32,1
     43,0777	     229,027	34,6	     228,964	31,4
     43,0797	     228,303	32,9	     229,002	31,3
     43,0816	     227,621	32,2	     228,247	31,2
     43,0836	     227,243	33,8	     228,159	33,6
     43,0855	     227,679	34,9	     228,204	33,5
     43,0875	     228,421	32,8	     226,379	32,9
     43,0894	     226,964	31,4	     225,533	32,3
     43,0914	     227,243	32,1	     224,968	32,9
     43,0934	     225,338	30,2	     224,553	30,1
     43,0953	     224,745	33,2	     224,951	34,3
     43,0973	     224,152	35,6	     224,337	33,5
     43,0992	     222,487	36,0	     223,354	34,4
     43,1012	     221,408	36,5	     222,335	31,5
     43,1031	     220,253	36,8	      221,43	30,5
     43,1051	     221,126	33,5	     219,322	31,4
      43,107	     220,369	32,8	     218,741	34,3
      43,109	     219,285	34,7	     219,221	34,8
     43,1109	     218,615	34,9	     218,364	35,6
     43,1129	     218,366	36,1	     218,424	34,3
     43,1149	      217,36	35,1	     218,403	32,9
     43,1168	     215,582	32,8	     217,175	31,9
     43,1188	     215,285	31,6	     216,435	31,2
     43,1207	      216,13	32,9	     215,299	32,6
     43,1227	      215,75	35,8	     214,501	33,8
     43,1246	     215,273	36,7	     215,073	33,5
     43,1266	     214,481	37,7	     214,341	36,2
     43,1285	     213,826	36,0	     213,208	32,6
     43,1305	     212,004	34,2	     213,376	34,6
     43,1325	      211,18	34,8	     213,008	35,4
     43,1344	     210,727	33,1	     212,842	33,4
     43,1364	     210,063	36,7	     212,329	36,9
     43,1383	     211,406	34,7	     212,087	34,7
     43,1403	     210,322	32,9	     210,611	32,7
     43,1422	     209,533	34,3	     208,623	33,4
     43,1442	     208,868	32,8	     207,278	32,8
     43,1461	     209,191	34,1	     207,126	32,6
     43,1481	     209,261	36,9	     207,338	35,9
       43,15	     207,385	38,4	     206,841	37,0
      43,152	     207,002	36,9	     206,803	36,2
      43,154	     206,514	36,4	     206,615	36,6
     43,1559	     205,348	35,3	     205,307	35,6
     43,1579	     204,503	34,7	     205,262	34,5
     43,1598	     204,479	36,6	     205,506	35,9
     43,1618	     204,398	34,8	     204,437	33,5
     43,1637	     203,623	36,6	     203,759	35,1
     43,1657	     202,547	37,1	     202,481	35,9
     43,1676	      201,54	33,7	     202,054	34,3
     43,1696	     201,938	37,0	     201,908	36,9
     43,1716	     201,265	36,2	     201,101	34,5
     43,1735	     200,769	36,4	     200,693	34,5
     43,1755	     200,993	39,3	     198,969	39,1
     43,1774	     198,693	37,5	     198,926	37,9
     43,1794	      198,44	39,7	     199,293	38,1
     43,1813	     198,431	36,6	     199,564	37,0
     43,1833	     198,031	35,1	     197,758	35,0
     43,1852	     198,105	35,5	     197,237	34,0
     43,1872	     197,205	37,1	     197,201	35,1
     43,1891	     197,632	36,5	     195,675	36,4
     43,1911	     196,822	37,1	     195,463	37,3
     43,1931	     195,319	39,9	     194,158	39,0
      43,195	     194,401	36,6	     194,585	37,4
      43,197	     193,994	37,2	     194,488	36,3
     43,1989	     194,633	38,5	      193,66	37,4
     43,2009	      193,69	37,8	     193,839	36,4
     43,2028	     191,748	36,1	     193,317	39,3
     43,2048	     191,476	37,4	     192,624	36,7
     43,2067	     192,684	37,0	     191,497	37,4
     43,2087	     191,163	35,1	     190,922	36,9
     43,2107	     190,561	37,5	     189,087	36,6
     43,2126	     190,413	36,0	      189,05	38,9
     43,2146	     189,194	39,4	     187,952	36,8
     43,2165	     189,298	38,6	     190,068	37,6
     43,2185	     187,487	38,7	     189,781	39,3
     43,2204	     188,048	41,9	     189,067	38,9
     43,2224	     187,347	38,7	     189,186	38,6
     43,2243	     186,228	36,9	     189,667	37,1
     43,2263	     186,837	35,7	     187,849	34,2
     43,2282	     185,065	36,9	     186,003	36,5
     43,2302	       185,3	37,0	     185,089	36,5
     43,2322	     185,738	38,9	     184,628	38,3
     43,2341	     185,489	40,4	     184,864	41,1
     43,2361	     184,899	39,3	     186,004	39,7
      43,238	     184,723	40,4	     184,348	39,6
       43,24	     184,087	40,2	     184,026	38,8
     43,2419	     183,939	39,5	     184,162	39,1
     43,2439	     183,057	37,5	      184,08	34,9
     43,2458	     182,341	39,1	     183,285	37,9
     43,2478	      182,61	39,8	     181,804	39,0
     43,2498	     182,787	37,4	     181,169	39,3
     43,2517	     182,041	39,7	     182,241	40,4
     43,2537	     180,774	36,9	     180,437	39,0
     43,2556	     180,376	39,6	     180,494	41,0
     43,2576	     179,765	39,8	     179,009	39,8
     43,2595	     178,117	40,1	     180,324	37,5
     43,2615	     178,096	38,6	      180,06	35,9
     43,2634	     178,323	41,4	     179,784	36,7
     43,2654	     178,288	39,7	     178,797	39,4
     43,2673	     177,884	39,3	     178,553	39,1
     43,2693	     177,024	38,9	      177,47	39,7
     43,2713	     176,471	38,1	      176,65	38,8
     43,2732	     174,888	40,1	     176,485	40,1
     43,2752	     173,976	42,1	     175,115	38,6
     43,2771	     174,675	42,7	         175	37,9
     43,2791	      175,47	41,2	     175,344	40,2
      43,281	      175,77	39,8	     174,401	37,1
      43,283	     175,782	39,3	     175,371	41,7
     43,2849	     173,218	37,6	     174,304	40,7
     43,2869	     172,796	37,4	     173,073	38,4
     43,2889	     171,182	38,2	     172,319	40,6
     43,2908	     171,361	38,8	      171,89	41,1
     43,2928	     171,901	42,9	     171,767	38,7
     43,2947	     172,512	43,3	     172,809	41,9
     43,2967	     171,035	43,2	     172,737	37,4
     43,2986	      169,37	41,2	     171,472	39,1
     43,3006	     169,813	38,9	     170,501	39,4
     43,3025	     169,997	39,6	     168,884	38,1
     43,3045	     169,302	38,5	     169,105	39,8
     43,3064	     169,799	40,0	      168,49	40,3
     43,3084	     170,112	41,7	     167,004	39,7
     43,3104	     169,607	43,1	     166,588	42,5
     43,3123	     168,985	42,0	     167,389	42,3
     43,3143	     167,829	42,3	     168,236	41,3
     43,3162	     166,582	41,2	      168,09	41,1
     43,3182	     166,163	40,4	     167,646	38,8
     43,3201	     165,577	38,1	     166,526	41,6
     43,3221	      166,63	39,7	     165,333	42,4
      43,324	     166,545	41,3	     165,039	41,3
      43,326	     165,784	41,8	     165,492	40,5
      43,328	     165,342	43,6	     165,062	42,7
     43,3299	     164,799	41,8	     165,192	40,2
     43,3319	     164,096	42,1	     164,728	40,9
     43,3338	      162,86	40,8	     164,665	42,0
     43,3358	     162,259	40,8	     164,511	39,5
     43,3377	     162,677	38,0	      164,25	41,9
     43,3397	     164,195	40,2	     162,501	40,9
     43,3416	     163,261	40,9	     163,001	41,4
     43,3436	     162,447	44,2	     162,593	42,8
     43,3456	     161,487	44,3	     162,539	41,1
     43,3475	     160,579	42,8	      162,04	41,9
     43,3495	     159,381	42,0	     160,278	41,0
     43,3514	      160,06	40,1	      159,47	43,3
     43,3534	      160,01	40,4	     158,471	43,4
     43,3553	      160,69	40,8	     158,973	41,0
     43,3573	      160,97	42,6	     159,511	42,4
     43,3592	     159,389	43,9	     159,473	43,5
     43,3612	      158,95	43,5	     159,665	40,5
     43,3631	     158,753	42,7	     159,503	42,6
     43,3651	     157,368	43,7	     157,758	41,9
     43,3671	     157,037	42,0	      158,13	42,0
      43,369	     157,106	40,4	     157,304	42,7
      43,371	     157,798	39,3	     156,352	41,4
     43,3729	     157,915	41,2	     156,382	43,2
     43,3749	     156,821	43,1	     157,112	41,4
     43,3768	     156,063	45,5	     156,234	40,7
     43,3788	     154,983	44,3	     155,728	39,9
     43,3807	     154,183	44,0	     156,175	42,1
     43,3827	     154,039	42,0	     154,866	41,3
     43,3847	     154,037	40,4	     154,831	44,1
     43,3866	     154,287	40,2	     154,563	46,3
     43,3886	     153,297	40,9	     153,747	44,6
     43,3905	     153,683	42,3	     154,558	43,0
     43,3925	     154,499	44,8	     152,687	41,7
     43,3944	     153,764	46,5	     152,142	40,6
     43,3964	     153,457	46,4	     152,601	40,9
     43,3983	     152,732	44,5	     151,165	40,9
     43,4003	     151,542	42,9	     151,518	44,3
     43,4022	     151,525	41,2	     150,665	44,6
     43,4042	     151,692	41,5	     151,106	44,7
     43,4062	     151,011	42,2	      151,48	44,3
     43,4081	     150,362	42,9	      151,83	41,5
     43,4101	     150,447	44,8	     151,812	43,3
      43,412	     149,387	42,2	     150,955	42,3
      43,414	     149,041	44,6	      150,15	42,2
     43,4159	     148,883	42,9	     149,172	43,2
     43,4179	     148,607	42,1	     147,976	45,1
     43,4198	     148,847	46,2	     147,804	45,8
     43,4218	     148,268	42,6	      148,57	43,9
     43,4238	     148,196	44,3	      149,47	43,8
     43,4257	     147,165	44,5	     148,548	40,8
     43,4277	     147,021	43,1	     146,794	41,4
     43,4296	     146,528	44,2	     147,239	43,2
     43,4316	     147,132	43,2	     147,071	42,7
     43,4335	     146,776	42,2	     148,415	42,7
     43,4355	     147,728	44,6	     147,606	43,6
     43,4374	     146,505	44,8	     146,182	39,8
     43,4394	     146,454	46,5	     145,118	43,6
     43,4413	     144,589	44,0	     143,178	42,5
     43,4433	     144,334	42,2	     143,083	43,8
     43,4453	     144,298	42,9	     144,837	45,8
     43,4472	     144,322	41,5	     144,464	44,7
     43,4492	     145,153	42,7	     145,627	44,1
     43,4511	     144,034	46,3	       142,4	42,7
     43,4531	     143,584	46,0	     142,709	42,0
      43,455	     143,327	47,5	     142,964	42,5
      43,457	     143,171	45,0	     141,791	43,2
     43,4589	     142,538	44,2	     142,172	44,9
     43,4609	      141,07	42,3	     141,502	47,8
     43,4629	     141,763	43,0	     140,802	45,3
     43,4648	     142,325	42,9	     141,492	46,5
     43,4668	      141,54	43,6	     141,426	44,9
     43,4687	     141,534	46,6	     141,136	43,2
     43,4707	     140,634	43,7	     140,961	45,9
     43,4726	     140,192	46,2	     141,502	44,8
     43,4746	     140,625	43,5	     142,037	44,2
     43,4765	      141,82	44,6	     139,599	43,9
     43,4785	     140,592	46,8	     138,321	47,5
     43,4804	     139,413	48,0	     137,554	44,5
     43,4824	     138,889	45,5	     137,961	45,5
     43,4844	     138,081	44,8	      137,27	45,7
     43,4863	     138,131	43,6	     138,689	46,1
     43,4883	     137,604	42,9	     138,151	47,2
     43,4902	     137,883	43,7	     139,286	46,3
     43,4922	     139,467	44,1	     139,701	44,2
     43,4941	     138,989	45,9	     138,099	42,1
     43,4961	     137,547	45,4	     134,873	40,9
      43,498	     137,611	47,1	     134,531	44,0
        43,5	     137,387	44,6	     135,173	44,7

