X-Data [Hz]	Piezo (M - Filtered) [mV]	Phase [Deg]	Piezo (M - Filtered) [mV]	Phase [Deg]	
	002: [07-09-24 10:01]		003: [07-09-24 10:05]	
        40,5	     398,675	74,6	     440,175	74,5
     40,5029	     416,372	75,0	     441,928	74,1
     40,5059	     429,133	74,5	     444,094	74,5
     40,5088	     436,098	74,0	     441,984	75,1
     40,5117	      439,62	73,8	       443,8	74,7
     40,5147	     443,007	73,2	     445,967	74,9
     40,5176	     442,335	74,2	     446,029	74,3
     40,5205	     444,736	74,7	      446,07	74,5
     40,5235	     446,796	73,2	     445,916	75,0
     40,5264	     445,595	74,2	     449,494	74,3
     40,5293	     448,346	73,5	     447,191	75,1
     40,5323	     446,908	74,1	     449,699	74,8
     40,5352	     445,523	74,9	     450,138	74,5
     40,5381	     449,756	73,7	      452,03	74,7
     40,5411	     449,583	74,6	     451,273	74,0
      40,544	     450,354	74,2	     453,761	74,8
     40,5469	     451,553	73,5	     452,235	74,7
     40,5499	     449,926	74,6	     454,095	74,4
     40,5528	     453,526	73,6	     453,287	74,7
     40,5557	     454,308	74,3	     456,157	74,9
     40,5587	     452,736	74,5	     454,521	74,5
     40,5616	     455,361	74,0	     457,041	75,0
     40,5645	     452,966	74,9	     457,893	74,2
     40,5674	     456,331	74,6	     458,428	74,5
     40,5704	     457,135	74,0	     457,478	74,9
     40,5733	     458,054	74,4	     459,513	74,2
     40,5762	     458,664	74,0	     459,509	74,8
     40,5792	     459,118	74,5	     460,779	74,6
     40,5821	     460,304	75,2	     461,775	74,3
      40,585	     460,366	74,4	     461,332	74,7
      40,588	     460,281	75,3	     463,615	74,1
     40,5909	     460,605	74,7	     463,813	74,4
     40,5938	     464,122	73,7	     464,297	75,1
     40,5968	     461,154	74,8	     465,289	75,2
     40,5997	      466,94	73,9	     464,849	74,7
     40,6026	     463,456	74,8	     466,425	75,0
     40,6056	     466,048	75,1	     467,001	74,5
     40,6085	     464,668	74,8	     468,895	74,7
     40,6114	     466,961	74,9	     467,426	74,7
     40,6144	     468,026	74,8	     472,364	74,5
     40,6173	     469,066	74,0	     469,459	74,8
     40,6202	     468,021	75,0	     471,637	74,8
     40,6232	     468,687	75,3	     472,305	74,8
     40,6261	     469,753	74,4	      471,41	74,5
      40,629	     470,764	75,8	     473,929	74,8
      40,632	     471,803	75,1	     474,282	74,4
     40,6349	     472,928	74,7	     474,913	74,9
     40,6378	     472,733	75,1	     476,198	74,7
     40,6408	     476,363	73,9	     476,883	74,8
     40,6437	     474,096	74,7	     475,462	75,3
     40,6466	     476,647	75,2	     479,339	74,9
     40,6496	     476,244	74,3	     478,434	74,9
     40,6525	     477,527	74,9	     480,696	75,2
     40,6554	     477,742	75,3	     480,226	74,6
     40,6584	     478,332	74,9	     482,718	74,9
     40,6613	     481,639	74,7	      482,19	75,2
     40,6642	     479,591	74,9	      483,96	75,2
     40,6672	     483,157	74,3	     484,174	75,2
     40,6701	     482,757	75,0	     484,514	75,2
      40,673	     481,514	75,3	     485,227	74,7
      40,676	     483,639	74,6	     487,714	75,1
     40,6789	     484,547	75,6	     486,037	75,6
     40,6818	       483,7	75,2	     488,653	74,8
     40,6847	     488,399	74,6	     489,064	75,4
     40,6877	     485,584	75,0	     489,344	75,1
     40,6906	     488,535	74,7	     492,822	74,8
     40,6936	     489,478	74,8	     491,149	75,3
     40,6965	     488,604	75,3	     492,951	75,1
     40,6994	     490,241	75,7	     494,065	75,3
     40,7023	     490,109	75,0	      493,33	75,6
     40,7053	     491,854	75,7	     493,994	75,9
     40,7082	      491,95	75,2	     496,275	75,5
     40,7111	     495,214	74,7	       495,1	75,8
     40,7141	     492,578	75,6	     496,941	75,5
      40,717	     495,438	75,2	     498,072	75,5
     40,7199	      498,79	74,9	     499,974	75,3
     40,7229	     496,117	75,3	     498,597	75,9
     40,7258	     498,554	75,8	     500,875	75,3
     40,7287	     498,067	75,3	     502,086	75,8
     40,7317	     499,446	75,4	     502,057	76,1
     40,7346	     499,334	75,5	     501,628	75,9
     40,7375	     501,872	74,7	     505,241	75,9
     40,7405	     503,909	75,1	     503,549	76,1
     40,7434	     501,608	75,6	     505,571	75,6
     40,7463	     506,472	75,1	     506,993	75,9
     40,7493	      504,78	75,6	     508,176	76,1
     40,7522	     505,253	75,3	     508,395	75,3
     40,7551	      507,91	75,1	     509,447	75,6
     40,7581	     506,811	75,9	     510,382	75,6
      40,761	      508,12	75,5	     511,973	75,5
     40,7639	     511,485	74,9	       513,5	75,6
     40,7669	     510,966	75,2	     513,838	75,9
     40,7698	      512,29	75,3	     513,267	75,6
     40,7727	     514,325	74,9	     516,463	75,3
     40,7757	     514,238	75,1	     516,167	75,8
     40,7786	     512,449	75,9	     518,234	75,6
     40,7815	     517,236	74,6	     518,783	75,7
     40,7845	     516,139	75,2	     518,635	75,6
     40,7874	     517,342	75,8	     520,314	75,9
     40,7903	     517,047	75,7	     521,232	75,9
     40,7933	     519,902	75,1	     523,447	76,0
     40,7962	     519,994	75,7	     522,157	76,1
     40,7991	      520,87	75,8	     524,219	75,9
     40,8021	     522,657	75,5	     526,779	76,0
      40,805	     521,704	75,8	     524,675	76,4
     40,8079	     523,681	75,7	     525,697	76,3
     40,8109	     525,153	75,3	     529,972	76,3
     40,8138	     527,333	75,4	     527,285	76,5
     40,8167	     526,177	75,4	     530,011	76,3
     40,8196	     527,439	75,4	     530,596	76,1
     40,8226	     529,095	75,6	     533,212	75,8
     40,8255	     527,556	76,1	     532,335	76,3
     40,8284	     529,667	75,7	     535,256	75,7
     40,8314	      531,51	75,9	     534,082	76,0
     40,8343	     532,274	76,4	     536,104	76,2
     40,8372	     532,744	75,9	     536,389	76,5
     40,8402	     537,009	75,6	     539,302	75,9
     40,8431	     535,189	75,2	     537,925	76,4
      40,846	     538,509	75,7	     539,776	76,3
      40,849	      537,12	75,1	     542,515	76,3
     40,8519	      540,41	75,8	     541,426	76,5
     40,8548	     537,988	76,1	     542,359	76,4
     40,8578	     539,355	76,1	     545,602	76,6
     40,8607	     541,606	75,8	     544,903	76,6
     40,8636	     541,069	76,4	     545,885	76,3
     40,8666	     542,248	76,4	     549,215	76,7
     40,8695	     546,403	76,2	      548,41	76,4
     40,8724	     545,583	75,6	     549,377	76,5
     40,8754	     547,701	76,3	     549,578	76,6
     40,8783	      549,17	75,8	     551,685	76,4
     40,8812	     548,318	75,9	     553,837	76,2
     40,8842	     548,101	76,3	     551,765	76,9
     40,8871	     550,329	76,1	     555,068	76,4
       40,89	     553,639	75,6	     557,405	76,3
      40,893	      554,69	75,7	      556,33	76,7
     40,8959	     553,747	76,3	     558,755	76,6
     40,8988	     557,885	75,4	     560,421	76,5
     40,9018	     556,532	76,1	     561,741	76,7
     40,9047	     555,772	76,3	     561,059	77,0
     40,9076	     555,641	77,0	      563,09	76,6
     40,9106	     560,548	76,0	     564,241	76,7
     40,9135	     558,678	76,4	     566,173	76,8
     40,9164	     560,774	76,9	      563,91	76,9
     40,9194	      562,98	76,8	     566,136	76,8
     40,9223	     564,369	76,2	     568,708	76,9
     40,9252	     565,615	76,5	      566,09	76,9
     40,9282	     564,081	76,5	     569,845	76,7
     40,9311	     569,915	76,1	     572,452	77,0
      40,934	     568,276	76,2	     572,276	76,7
      40,937	     570,118	76,4	     573,493	77,1
     40,9399	      570,51	76,0	     575,553	77,1
     40,9428	     573,484	76,1	     575,993	77,3
     40,9457	      572,25	76,2	     578,004	76,8
     40,9487	     574,322	76,1	     578,586	77,3
     40,9516	     575,643	76,1	     580,908	77,3
     40,9545	     578,124	75,8	     582,877	76,8
     40,9575	     575,608	76,8	     584,058	76,9
     40,9604	     579,379	77,1	     583,131	77,1
     40,9633	     580,633	76,5	      586,21	76,9
     40,9663	     581,563	77,2	     586,245	77,1
     40,9692	      580,89	77,1	     588,818	77,1
     40,9721	     583,155	76,6	     588,001	77,7
     40,9751	     585,281	76,7	     591,171	77,2
      40,978	     585,637	77,1	     591,646	77,4
     40,9809	     586,691	76,9	     590,791	77,7
     40,9839	     588,013	76,6	     593,081	77,4
     40,9868	     592,334	76,6	      594,71	77,6
     40,9897	     587,575	77,1	     595,569	77,7
     40,9927	     591,231	77,2	     596,296	77,5
     40,9956	      594,92	77,1	     598,256	77,4
     40,9985	     595,347	76,6	       600,6	77,3
     41,0015	     595,006	77,4	     601,933	77,4
     41,0044	     598,681	77,4	     602,164	77,6
     41,0073	     599,649	76,7	     604,134	77,7
     41,0103	     599,662	76,7	     605,181	77,7
     41,0132	     600,705	77,1	     606,668	77,9
     41,0161	     604,196	76,7	     607,367	78,1
     41,0191	     603,646	76,6	     609,095	77,5
      41,022	       605,1	77,0	     609,556	77,4
     41,0249	     605,953	77,2	     613,688	77,2
     41,0279	     606,512	77,3	     612,804	77,6
     41,0308	     610,959	76,8	     615,211	77,2
     41,0337	     611,166	77,4	     617,775	77,4
     41,0367	     614,069	77,3	     617,348	78,1
     41,0396	     613,486	77,2	     616,518	78,1
     41,0425	     615,595	77,0	     619,155	78,0
     41,0455	     615,923	76,7	     621,418	77,9
     41,0484	     616,831	77,3	     622,454	78,1
     41,0513	     616,731	77,5	     622,402	78,0
     41,0543	     619,383	76,9	     625,964	78,0
     41,0572	     619,433	77,7	     626,508	77,9
     41,0601	     621,774	78,0	     627,114	77,9
      41,063	     623,284	77,8	     629,699	78,2
      41,066	     626,584	77,4	     630,435	78,4
     41,0689	     626,354	77,9	     632,657	78,2
     41,0718	     627,395	77,7	     632,334	77,8
     41,0748	     630,715	77,4	     637,301	78,4
     41,0777	     631,289	77,2	     635,899	78,4
     41,0806	     632,369	77,6	     639,515	77,6
     41,0836	     631,749	77,9	     642,136	77,9
     41,0865	     635,413	78,1	     640,531	78,4
     41,0894	     637,173	77,7	      643,95	77,9
     41,0924	     639,733	77,7	      646,06	78,4
     41,0953	     638,676	78,2	     645,765	78,3
     41,0982	     640,871	77,8	     647,779	78,4
     41,1012	     643,512	77,3	     648,095	78,4
     41,1041	     644,301	77,7	     649,519	78,2
      41,107	     643,759	78,0	     653,551	78,0
       41,11	     645,836	77,8	     653,667	78,4
     41,1129	     648,877	78,0	     653,575	78,7
     41,1158	     651,008	77,7	     655,766	78,9
     41,1188	      652,68	77,7	     659,276	78,7
     41,1217	     652,316	78,2	     657,823	78,7
     41,1246	     654,783	78,0	     661,699	78,4
     41,1276	     657,164	77,5	     662,688	78,7
     41,1305	     659,163	78,0	     665,941	78,3
     41,1334	     658,727	78,3	     666,774	78,4
     41,1364	     658,589	78,1	     665,786	79,1
     41,1393	     664,455	78,2	     667,052	79,0
     41,1422	     664,709	78,2	      671,96	79,1
     41,1452	     666,088	78,3	     672,199	78,8
     41,1481	     665,538	78,4	     675,032	78,7
      41,151	     670,136	77,8	       675,4	78,8
      41,154	     671,126	78,1	     677,517	78,9
     41,1569	     672,194	78,5	     681,519	78,9
     41,1598	      670,96	78,7	     682,809	78,9
     41,1628	     674,956	78,3	     682,537	79,4
     41,1657	     679,078	78,2	     683,152	79,4
     41,1686	     680,373	78,4	     687,807	79,3
     41,1716	     678,891	78,5	     689,697	79,1
     41,1745	     680,613	78,6	     691,583	78,8
     41,1774	     685,193	78,1	     693,046	79,0
     41,1804	      685,34	78,2	     694,284	79,2
     41,1833	     688,042	79,0	     696,163	79,2
     41,1862	     688,229	78,9	     695,903	79,4
     41,1891	     691,913	78,8	     696,913	79,1
     41,1921	     694,842	78,4	     699,862	79,6
      41,195	     694,613	78,3	     702,157	79,3
     41,1979	     696,289	78,7	     704,045	79,3
     41,2009	     698,662	79,0	       708,3	79,4
     41,2038	     699,141	78,7	     708,456	79,8
     41,2067	     702,756	78,9	     707,789	79,7
     41,2097	     705,294	79,0	     710,298	79,7
     41,2126	     702,843	79,6	     712,505	79,5
     41,2155	     708,079	79,2	     713,887	79,6
     41,2185	     708,341	79,0	     717,133	79,6
     41,2214	     710,633	78,8	     719,204	79,6
     41,2243	     712,013	79,0	     718,316	80,1
     41,2273	     711,994	79,2	     720,883	79,9
     41,2302	     714,953	79,8	     723,586	79,9
     41,2331	     717,742	79,1	     727,552	79,7
     41,2361	     721,788	79,0	     729,113	80,0
      41,239	     722,304	79,0	     729,406	80,1
     41,2419	     721,973	79,1	     733,729	79,8
     41,2449	     723,706	79,5	      737,37	80,2
     41,2478	     726,449	79,5	     735,706	80,0
     41,2507	     729,507	79,4	     738,192	80,2
     41,2537	     730,749	79,7	     737,691	80,2
     41,2566	      732,88	79,6	     743,128	79,8
     41,2595	     734,366	79,8	     747,512	80,0
     41,2625	     738,167	79,1	     746,325	80,3
     41,2654	     740,229	79,7	     746,981	80,2
     41,2683	     741,917	80,0	     750,479	80,2
     41,2713	     741,866	79,9	     753,254	80,0
     41,2742	     742,545	79,8	     755,452	80,2
     41,2771	     750,355	79,6	     757,741	80,5
     41,2801	     753,775	79,6	      762,34	80,5
      41,283	     749,911	79,8	     761,651	81,0
     41,2859	     750,904	80,4	     763,706	80,7
     41,2889	     755,723	80,2	     766,417	80,2
     41,2918	     759,352	80,0	      769,29	80,4
     41,2947	     760,766	79,6	     770,993	80,7
     41,2977	     763,397	79,7	     771,743	81,2
     41,3006	     764,436	80,1	     773,381	81,1
     41,3035	      764,76	80,7	     777,241	80,8
     41,3064	     769,885	80,5	     779,309	80,9
     41,3094	     770,162	79,9	     783,163	81,0
     41,3123	     773,609	80,1	     784,974	81,1
     41,3153	     776,183	80,3	     783,253	81,6
     41,3182	     777,643	80,4	     788,695	81,1
     41,3211	     777,429	80,9	     790,611	81,2
      41,324	     785,193	80,7	     791,895	81,2
      41,327	     786,484	80,5	      796,44	81,1
     41,3299	     788,922	80,4	     798,145	81,6
     41,3328	     790,544	80,5	      799,52	81,4
     41,3358	     787,269	80,8	     802,772	81,5
     41,3387	     796,829	80,7	      803,28	81,4
     41,3416	     798,777	80,6	     808,522	81,2
     41,3446	     798,192	80,4	     809,739	81,4
     41,3475	     802,415	80,5	     812,673	81,7
     41,3504	      804,12	81,0	     814,816	81,7
     41,3534	     805,398	80,8	     818,355	81,7
     41,3563	     808,917	80,8	     821,016	81,7
     41,3592	     811,795	80,9	     822,748	81,7
     41,3622	     815,086	80,6	     825,222	81,8
     41,3651	     813,076	81,1	     828,206	82,1
      41,368	     814,551	81,4	     831,369	82,3
      41,371	     818,438	81,5	     832,673	82,1
     41,3739	     820,553	81,5	     835,926	82,1
     41,3768	     826,139	81,5	      839,44	82,5
     41,3798	     829,633	81,5	     840,509	82,2
     41,3827	     831,079	81,4	      844,27	82,4
     41,3856	     831,502	81,7	     846,107	82,2
     41,3886	     835,019	81,9	     848,648	82,4
     41,3915	     841,098	81,4	     851,687	82,5
     41,3944	     842,012	81,6	     855,921	82,6
     41,3974	     842,749	81,5	     857,475	82,4
     41,4003	     846,773	81,7	     859,574	82,4
     41,4032	      845,07	81,9	     859,763	82,6
     41,4062	     849,976	82,5	     863,621	83,0
     41,4091	     855,078	82,1	     866,511	82,7
      41,412	     858,485	81,9	     870,855	82,9
      41,415	     862,305	82,1	     875,217	82,5
     41,4179	      863,96	82,0	     878,964	82,7
     41,4208	     864,179	82,2	      880,53	82,8
     41,4238	     867,275	82,5	     883,844	83,2
     41,4267	     870,633	82,2	     886,567	83,2
     41,4296	     877,844	81,9	     889,468	82,9
     41,4326	     878,073	82,1	     891,514	83,1
     41,4355	     881,717	82,2	     894,665	83,1
     41,4384	     880,973	83,0	      897,99	83,3
     41,4413	     885,299	82,8	     902,234	83,3
     41,4443	     888,235	82,4	     905,105	83,2
     41,4472	      892,51	82,7	     908,495	83,5
     41,4501	     894,422	82,9	     914,398	83,7
     41,4531	     896,774	83,0	     917,164	84,0
      41,456	     900,796	82,9	     919,209	83,5
     41,4589	     902,831	82,9	     922,898	83,5
     41,4619	     905,685	83,3	     925,899	83,6
     41,4648	     908,975	83,4	     927,815	84,0
     41,4677	     913,562	83,1	     932,444	83,9
     41,4707	     919,023	83,1	      936,01	83,9
     41,4736	     921,841	83,2	     938,513	84,1
     41,4765	     925,132	83,3	     943,073	83,9
     41,4795	     925,728	83,4	     946,285	84,4
     41,4824	     929,884	83,7	     950,539	84,5
     41,4853	     931,082	83,5	     953,045	84,1
     41,4883	     933,911	83,7	     957,351	84,3
     41,4912	     942,612	83,6	     959,582	84,7
     41,4941	     946,828	83,8	      963,63	84,6
     41,4971	     949,542	84,0	     967,926	84,6
        41,5	     951,992	83,6	     971,574	84,6
     41,5029	     954,438	83,6	     975,011	84,5
     41,5059	     958,446	84,1	     980,598	85,0
     41,5088	      962,85	84,2	       983,6	85,3
     41,5117	     966,284	84,1	     986,748	85,1
     41,5147	     969,705	84,1	     992,376	84,9
     41,5176	     971,811	84,1	     994,804	85,3
     41,5205	     974,539	84,4	     999,418	85,2
     41,5235	     979,665	84,4	     1004,04	85,3
     41,5264	     981,878	84,3	     1008,94	85,2
     41,5293	     986,877	84,5	      1013,3	85,7
     41,5323	      991,75	84,8	     1014,93	85,9
     41,5352	     996,466	84,8	     1018,98	85,7
     41,5381	     999,834	84,9	     1022,33	85,6
     41,5411	      1004,1	85,0	     1028,97	85,5
      41,544	     1010,17	85,2	     1034,71	85,9
     41,5469	     1012,35	84,7	     1040,79	86,0
     41,5499	     1016,17	85,4	     1044,62	85,8
     41,5528	     1021,23	85,1	     1050,15	86,0
     41,5557	     1024,82	85,2	     1053,79	86,0
     41,5587	     1030,63	85,3	     1057,11	86,6
     41,5616	     1034,21	85,6	     1058,82	86,4
     41,5645	     1038,63	85,7	     1065,87	86,5
     41,5674	     1040,52	85,6	     1073,35	86,7
     41,5704	      1044,8	85,9	     1076,84	87,0
     41,5733	     1053,16	85,8	     1079,77	86,9
     41,5762	     1057,75	86,1	      1087,2	86,8
     41,5792	     1060,39	85,7	     1092,31	87,1
     41,5821	     1064,83	85,9	     1094,66	87,2
      41,585	     1070,82	86,2	      1099,9	87,4
      41,588	     1075,74	86,5	     1104,12	87,1
     41,5909	     1080,12	86,5	     1109,52	87,3
     41,5938	     1084,15	86,3	     1116,62	87,7
     41,5968	     1088,88	86,6	     1122,41	87,7
     41,5997	      1092,3	86,8	     1129,21	87,7
     41,6026	     1100,29	86,6	     1134,05	87,9
     41,6056	     1105,35	86,5	     1140,22	88,1
     41,6085	     1109,78	87,1	     1144,16	88,2
     41,6114	     1116,35	87,1	     1149,53	87,9
     41,6144	     1120,86	87,5	     1155,99	88,3
     41,6173	     1125,98	87,1	     1161,93	88,6
     41,6202	     1129,36	87,4	     1167,17	88,9
     41,6232	      1136,5	87,4	      1172,6	88,7
     41,6261	      1143,3	87,9	     1179,58	88,9
      41,629	        1148	87,4	     1187,67	89,0
      41,632	     1152,06	87,5	     1193,36	89,0
     41,6349	     1158,18	87,7	     1201,18	88,8
     41,6378	     1164,26	88,3	     1207,57	89,3
     41,6408	     1170,43	88,2	     1213,78	89,6
     41,6437	     1173,45	88,3	     1218,07	89,8
     41,6466	     1180,43	88,8	      1224,6	89,7
     41,6496	     1187,79	88,8	     1231,91	89,9
     41,6525	     1194,95	88,7	     1238,41	90,3
     41,6554	     1200,01	88,9	     1247,32	90,4
     41,6584	     1209,43	88,9	     1254,87	90,2
     41,6613	     1216,54	89,2	     1261,85	90,3
     41,6642	     1223,44	89,0	     1269,55	90,9
     41,6672	     1228,06	89,2	     1277,12	90,8
     41,6701	     1235,18	89,9	     1283,45	90,9
      41,673	     1241,22	90,1	     1293,29	91,1
      41,676	     1248,47	89,7	     1300,19	91,4
     41,6789	      1252,2	89,8	     1307,95	91,4
     41,6818	     1260,82	90,3	     1317,15	91,6
     41,6847	     1268,03	90,2	     1326,81	91,8
     41,6877	     1279,47	90,2	     1337,21	92,5
     41,6906	     1285,88	90,0	     1345,95	92,0
     41,6936	     1292,92	90,9	     1356,44	92,5
     41,6965	     1301,14	90,7	     1368,11	92,7
     41,6994	     1306,32	91,1	     1376,15	93,0
     41,7023	     1312,38	91,3	     1385,42	92,9
     41,7053	     1320,92	91,9	     1393,96	93,3
     41,7082	     1331,67	91,7	     1407,04	93,7
     41,7111	     1341,66	91,6	     1418,21	94,1
     41,7141	     1348,75	91,8	     1429,63	93,9
      41,717	     1357,93	92,3	     1439,59	94,4
     41,7199	     1366,71	91,8	     1454,54	94,7
     41,7229	     1378,33	92,3	     1467,08	94,8
     41,7258	     1385,89	92,6	     1479,68	95,0
     41,7287	      1398,2	93,2	     1496,33	95,6
     41,7317	     1408,56	92,8	     1510,86	95,8
     41,7346	     1415,78	93,2	     1530,15	95,8
     41,7375	     1423,83	93,7	      1548,8	96,1
     41,7405	     1434,45	94,2	     1568,27	96,8
     41,7434	     1447,23	94,0	     1594,89	97,3
     41,7463	     1455,02	94,2	     1623,37	97,5
     41,7493	     1466,25	94,7	     1660,36	98,2
     41,7522	      1479,6	94,7	     1700,87	98,9
     41,7551	     1489,77	94,8	     1746,62	99,4
     41,7581	     1500,01	95,3	     1812,94	100,7
      41,761	     1511,74	95,5	      1873,7	102,1
     41,7639	     1528,59	95,9	     1941,73	103,2
     41,7669	      1540,2	96,0	     2012,21	104,4
     41,7698	     1553,08	96,5	     2099,36	106,5
     41,7727	     1564,23	96,6	     2169,91	108,6
     41,7757	     1576,63	96,9	     2241,08	110,1
     41,7786	     1590,66	97,2	     2310,98	112,0
     41,7815	     1602,58	97,9	     2375,64	114,2
     41,7845	     1616,99	97,9	     2446,89	116,5
     41,7874	     1632,17	98,3	      2503,9	117,8
     41,7903	     1648,29	99,0	      2557,6	120,1
     41,7933	     1664,22	99,1	     2606,43	121,8
     41,7962	     1680,91	99,3	     2654,13	123,2
     41,7991	     1698,83	99,6	     2700,51	125,2
     41,8021	     1714,86	100,5	     2739,06	127,0
      41,805	     1739,35	100,8	     2772,38	128,2
     41,8079	     1757,38	100,9	     2804,27	129,5
     41,8109	     1774,92	101,6	     2840,25	131,6
     41,8138	     1796,26	102,1	     2866,71	133,0
     41,8167	     1816,72	102,3	     2895,64	133,7
     41,8196	     1839,85	103,3	     2915,99	135,4
     41,8226	     1860,95	104,2	     2941,51	136,5
     41,8255	     1884,14	104,3	     2958,49	137,4
     41,8284	     1909,97	104,9	     2975,77	138,3
     41,8314	     1934,55	105,6	     2990,29	139,6
     41,8343	     1962,35	106,7	     3007,13	140,4
     41,8372	     1988,94	107,0	     3020,77	141,0
     41,8402	     2016,55	108,2	     3031,42	142,5
     41,8431	     2051,61	109,1	     3043,89	143,2
      41,846	     2082,89	109,5	     3055,16	143,6
      41,849	     2118,56	110,6	     3064,43	144,7
     41,8519	     2147,59	111,8	      3071,1	145,5
     41,8548	     2182,76	112,5	     3078,97	145,9
     41,8578	     2230,29	113,8	     3087,79	147,1
     41,8607	     2269,19	115,1	     3092,99	148,2
     41,8636	     2310,18	116,5	     3100,47	148,4
     41,8666	     2349,99	117,5	     3104,87	149,0
     41,8695	     2402,46	119,7	     3108,13	149,8
     41,8724	     2448,64	121,6	     3114,46	150,8
     41,8754	     2498,81	122,5	      3117,5	151,0
     41,8783	      2550,2	124,9	     3120,78	152,1
     41,8812	     2611,34	127,2	     3124,37	152,6
     41,8842	     2664,48	129,5	     3128,46	152,8
     41,8871	     2716,88	131,4	     3130,77	153,6
       41,89	     2769,17	134,1	      3133,8	154,1
      41,893	     2832,24	136,6	     3135,34	154,5
     41,8959	      2885,5	138,7	     3136,98	155,4
     41,8988	     2935,85	141,6	     3140,32	155,9
     41,9018	     2979,34	143,8	     3142,27	155,9
     41,9047	     3018,88	145,8	     3141,46	156,5
     41,9076	      3059,5	148,0	     3142,65	157,3
     41,9106	     3084,79	150,4	     3143,72	157,4
     41,9135	     3109,09	151,9	     3147,05	157,8
     41,9164	     3125,76	153,5	      3147,5	158,6
     41,9194	     3139,89	155,1	     3143,76	158,6
     41,9223	     3146,96	156,1	     3141,46	159,2
     41,9252	     3152,65	156,9	      3138,9	159,7
     41,9282	     3156,56	158,2	     3139,72	159,7
     41,9311	     3162,66	158,8	     3140,48	160,4
      41,934	     3165,08	159,2	     3138,69	161,0
      41,937	     3166,39	160,3	     3138,03	161,2
     41,9399	     3163,39	161,1	     3137,57	161,4
     41,9428	      3163,5	161,1	     3135,06	162,3
     41,9457	     3161,99	161,8	     3132,75	162,2
     41,9487	     3160,67	162,1	     3128,35	162,7
     41,9516	      3160,8	162,4	     3122,29	163,1
     41,9545	     3156,33	163,2	     3122,73	163,5
     41,9575	     3155,34	164,0	     3122,25	163,6
     41,9604	     3154,83	163,6	     3118,63	164,1
     41,9633	     3152,91	164,6	     3116,53	165,1
     41,9663	     3147,25	165,5	     3115,34	165,0
     41,9692	      3144,5	165,5	     3114,26	165,5
     41,9721	     3142,45	165,8	     3114,46	165,7
     41,9751	     3138,22	166,1	     3112,14	165,9
      41,978	     3135,77	166,3	     3106,23	166,8
     41,9809	     3130,19	166,5	     3103,23	166,9
     41,9839	     3127,65	167,2	     3100,66	166,9
     41,9868	     3126,85	167,4	     3098,81	167,5
     41,9897	     3126,21	168,2	     3095,13	168,2
     41,9927	     3122,89	168,2	     3091,56	168,0
     41,9956	      3119,9	168,4	     3088,57	168,8
     41,9985	     3114,86	168,9	     3087,12	168,6
     42,0015	     3111,88	169,6	      3084,4	169,3
     42,0044	      3109,3	169,6	      3081,8	169,9
     42,0073	     3105,31	170,2	     3079,37	169,8
     42,0103	     3101,61	170,2	     3076,79	170,2
     42,0132	     3098,74	170,4	     3074,07	170,6
     42,0161	     3096,32	171,4	     3070,61	170,3
     42,0191	     3093,58	171,5	     3064,83	171,3
      42,022	     3088,25	171,3	     3061,92	171,6
     42,0249	     3083,25	171,7	      3058,8	171,5
     42,0279	     3080,56	172,0	     3056,11	172,1
     42,0308	      3077,9	172,5	     3053,43	171,9
     42,0337	     3074,22	172,5	      3048,2	172,6
     42,0367	     3066,88	173,1	     3043,67	173,1
     42,0396	     3062,76	173,2	     3041,62	173,4
     42,0425	     3058,09	174,1	     3041,24	173,2
     42,0455	     3056,85	173,9	     3036,56	173,7
     42,0484	     3053,72	173,8	     3033,71	173,6
     42,0513	     3049,97	174,6	     3028,81	174,3
     42,0543	     3043,65	174,7	      3021,7	174,9
     42,0572	     3039,29	175,1	     3020,97	174,6
     42,0601	     3035,71	175,1	     3018,29	174,9
      42,063	     3032,82	175,4	     3010,46	175,8
      42,066	     3028,29	175,9	     3007,37	175,4
     42,0689	     3021,65	176,3	     3005,66	175,9
     42,0718	     3016,32	176,2	     3000,09	175,9
     42,0748	      3009,1	176,0	     2997,17	175,8
     42,0777	     3005,91	176,9	      2988,9	176,8
     42,0806	     3000,45	177,0	        2985	176,8
     42,0836	     2996,92	177,7	     2981,29	176,4
     42,0865	     2994,31	177,7	     2975,47	176,8
     42,0894	     2989,64	177,7	     2964,71	177,2
     42,0924	     2984,41	178,4	     2957,08	177,1
     42,0953	     2979,99	178,4	     2953,86	177,5
     42,0982	      2974,5	178,8	     2952,85	177,0
     42,1012	     2971,75	178,7	     2945,76	177,9
     42,1041	      2965,4	179,2	     2936,93	178,5
      42,107	     2961,73	179,6	     2939,05	178,2
       42,11	     2957,47	180,1	     2935,63	178,5
     42,1129	     2953,56	179,7	     2926,57	178,4
     42,1158	      2947,7	179,9	     2920,65	178,9
     42,1188	      2943,2	180,9	     2917,47	179,5
     42,1217	     2937,32	180,6	     2913,61	179,4
     42,1246	      2933,6	181,3	     2913,52	179,8
     42,1276	     2927,92	181,3	      2906,6	180,2
     42,1305	     2922,09	181,4	     2903,69	180,1
     42,1334	     2916,07	182,0	     2897,29	180,8
     42,1364	     2912,22	182,0	     2892,31	181,0
     42,1393	      2909,8	182,1	     2889,69	180,7
     42,1422	     2901,59	182,6	     2884,74	181,3
     42,1452	     2897,22	182,5	     2877,71	181,4
     42,1481	     2894,29	182,8	     2871,29	182,4
      42,151	     2885,54	183,3	     2868,82	182,3
      42,154	     2881,18	183,0	      2865,6	182,3
     42,1569	     2877,17	183,5	     2860,06	182,8
     42,1598	     2874,23	183,2	      2854,1	182,8
     42,1628	     2871,29	183,9	     2849,38	183,3
     42,1657	     2862,67	184,5	     2846,45	183,3
     42,1686	     2859,19	183,9	     2839,93	183,8
     42,1716	     2853,75	184,4	     2836,17	184,0
     42,1745	     2848,22	184,2	     2831,71	184,1
     42,1774	     2844,39	184,7	     2827,12	184,0
     42,1804	     2840,18	185,2	      2823,5	184,3
     42,1833	      2832,5	185,1	     2816,07	184,6
     42,1862	        2828	185,2	     2812,64	184,7
     42,1891	     2822,68	185,5	        2808	184,9
     42,1921	     2818,06	185,4	     2806,23	184,9
      42,195	     2811,75	186,1	     2800,32	185,4
     42,1979	     2806,53	186,2	     2792,94	185,5
     42,2009	     2802,04	186,2	     2789,01	185,4
     42,2038	     2796,04	186,8	     2784,98	185,8
     42,2067	     2791,29	186,5	     2779,47	186,1
     42,2097	      2785,8	187,5	      2775,3	186,7
     42,2126	     2778,86	187,6	     2769,56	186,6
     42,2155	     2774,58	187,2	      2765,4	186,7
     42,2185	     2768,58	188,1	     2759,94	187,3
     42,2214	     2762,39	187,9	     2752,98	187,4
     42,2243	     2759,41	188,5	     2750,68	187,8
     42,2273	     2755,32	188,5	     2743,51	187,8
     42,2302	     2745,62	188,7	     2737,56	188,3
     42,2331	      2741,7	189,2	     2734,45	188,1
     42,2361	     2738,29	188,7	     2729,12	188,2
      42,239	     2731,69	189,4	     2721,46	188,8
     42,2419	     2724,14	189,5	     2719,23	188,6
     42,2449	     2721,18	189,1	     2714,67	188,8
     42,2478	     2716,81	189,7	     2711,57	188,7
     42,2507	     2712,42	189,4	     2704,48	188,8
     42,2537	     2707,03	190,1	     2698,05	189,4
     42,2566	     2701,64	190,3	      2693,8	189,3
     42,2595	     2696,45	190,2	     2688,82	189,9
     42,2625	     2689,81	190,9	     2685,28	190,0
     42,2654	     2684,64	190,6	     2680,13	190,0
     42,2683	     2679,04	191,1	     2673,89	190,7
     42,2713	     2670,52	191,6	     2668,94	190,8
     42,2742	     2665,51	191,3	     2662,13	191,3
     42,2771	     2661,41	191,9	     2658,36	191,3
     42,2801	     2654,61	192,0	     2652,32	191,1
      42,283	     2650,15	192,2	     2646,02	191,7
     42,2859	     2645,14	192,0	     2641,98	191,3
     42,2889	     2636,65	192,3	     2634,41	192,1
     42,2918	     2631,55	192,8	     2632,46	191,6
     42,2947	     2630,48	192,1	     2626,63	191,9
     42,2977	     2621,45	192,8	     2622,83	192,0
     42,3006	     2615,36	193,2	     2618,03	192,4
     42,3035	     2611,32	192,9	     2613,15	192,6
     42,3064	     2606,89	193,3	     2608,76	192,5
     42,3094	     2603,37	192,9	     2601,99	193,1
     42,3123	     2596,12	193,8	     2596,91	193,2
     42,3153	     2590,93	193,8	     2590,63	193,7
     42,3182	     2582,72	194,1	      2585,4	193,7
     42,3211	     2578,35	194,5	     2581,04	193,6
      42,324	     2573,73	194,6	     2573,78	194,2
      42,327	     2566,31	194,7	     2571,03	193,7
     42,3299	     2560,73	194,8	     2562,19	194,4
     42,3328	     2556,62	195,2	      2559,6	194,3
     42,3358	     2554,41	195,0	     2554,07	194,3
     42,3387	     2548,41	195,1	     2550,35	194,4
     42,3416	     2539,71	195,8	     2543,84	194,8
     42,3446	     2535,04	195,4	     2536,81	194,9
     42,3475	     2531,73	195,7	     2533,71	195,2
     42,3504	     2523,91	195,6	     2527,52	195,8
     42,3534	     2518,11	196,3	     2522,53	195,8
     42,3563	     2514,37	196,2	     2517,57	195,7
     42,3592	     2508,74	196,1	     2509,99	196,7
     42,3622	     2500,66	197,0	     2505,81	196,2
     42,3651	      2496,5	196,9	     2503,03	196,3
      42,368	     2490,57	197,4	     2500,39	195,9
      42,371	     2483,52	197,6	      2490,5	196,7
     42,3739	     2478,32	197,7	     2486,94	196,6
     42,3768	     2473,72	197,5	      2482,9	196,5
     42,3798	     2471,81	197,4	     2477,47	197,0
     42,3827	     2465,32	197,7	     2469,88	197,6
     42,3856	     2459,09	197,6	     2464,86	197,7
     42,3886	     2455,44	198,0	     2461,35	197,7
     42,3915	     2449,59	198,0	     2454,05	198,4
     42,3944	     2442,13	198,8	     2449,74	198,4
     42,3974	     2436,02	198,7	     2444,16	198,3
     42,4003	     2431,31	198,6	      2438,4	198,6
     42,4032	     2424,28	199,5	     2433,97	198,2
     42,4062	     2421,61	199,1	     2433,81	198,3
     42,4091	     2416,38	199,1	      2425,3	198,3
      42,412	     2408,27	199,5	      2417,9	198,8
      42,415	     2404,19	199,4	     2413,13	198,7
     42,4179	        2400	199,6	     2405,12	199,7
     42,4208	     2395,71	199,6	     2400,08	199,3
     42,4238	     2389,56	199,7	     2393,96	199,7
     42,4267	     2384,94	199,6	     2388,57	-159,8
     42,4296	     2377,42	-159,4	     2385,22	-160,0
     42,4326	     2369,26	-159,6	      2382,7	-159,9
     42,4355	     2361,85	-158,8	     2379,62	-160,2
     42,4384	     2357,54	-159,4	     2374,04	-159,7
     42,4413	     2353,06	-159,1	     2367,16	-160,0
     42,4443	     2347,51	-159,0	     2359,37	-159,3
     42,4472	     2344,94	-159,2	     2352,03	-159,4
     42,4501	     2338,53	-159,1	     2346,96	-158,7
     42,4531	     2332,39	-158,6	     2342,58	-158,6
      42,456	     2329,24	-158,5	     2337,45	-158,7
     42,4589	     2322,67	-158,5	     2333,06	-158,9
     42,4619	     2316,67	-157,6	     2327,35	-158,7
     42,4648	     2312,76	-158,0	     2322,63	-158,3
     42,4677	     2306,95	-157,6	     2319,98	-158,9
     42,4707	     2298,13	-157,5	     2311,97	-158,1
     42,4736	     2293,99	-157,6	      2303,4	-157,8
     42,4765	     2289,98	-157,7	     2300,01	-157,6
     42,4795	     2285,07	-157,3	     2293,86	-157,6
     42,4824	     2278,43	-157,1	     2288,56	-157,0
     42,4853	     2274,69	-157,3	     2285,65	-157,7
     42,4883	     2267,97	-156,5	     2282,04	-157,4
     42,4912	     2260,45	-156,6	     2276,37	-157,5
     42,4941	     2254,81	-156,7	     2269,98	-157,2
     42,4971	      2246,4	-156,5	     2264,14	-157,0
        42,5	     2244,29	-156,2	     2255,53	-156,3
     42,5029	     2241,27	-156,6	     2252,28	-156,5
     42,5059	     2235,07	-156,2	     2246,66	-156,3
     42,5088	     2227,95	-156,3	     2241,13	-156,0
     42,5117	     2220,87	-156,0	     2238,98	-156,4
     42,5147	      2214,4	-155,7	     2233,18	-156,1
     42,5176	     2209,73	-155,5	     2226,21	-156,5
     42,5205	     2205,33	-155,9	     2220,89	-155,7
     42,5235	     2197,71	-155,3	     2219,03	-155,6
     42,5264	     2195,49	-155,2	     2211,16	-155,2
     42,5293	     2192,69	-155,5	      2206,5	-155,4
     42,5323	     2184,36	-155,0	     2197,67	-154,8
     42,5352	     2179,44	-154,7	     2194,69	-155,3
     42,5381	     2174,41	-154,9	     2188,98	-155,1
     42,5411	     2167,79	-154,6	     2186,31	-155,0
      42,544	     2162,79	-153,9	     2179,94	-154,4
     42,5469	     2159,29	-155,0	     2174,79	-154,6
     42,5499	     2153,15	-154,0	     2164,77	-154,3
     42,5528	     2150,66	-154,4	     2159,97	-154,2
     42,5557	     2144,32	-154,1	     2158,33	-154,4
     42,5587	     2136,37	-153,8	      2153,4	-154,0
     42,5616	     2131,39	-153,3	      2150,7	-154,1
     42,5645	      2126,2	-153,3	     2144,31	-153,9
     42,5674	     2122,15	-153,2	     2137,59	-153,5
     42,5704	     2117,12	-153,6	      2133,2	-153,2
     42,5733	     2109,57	-153,4	     2127,37	-153,3
     42,5762	     2107,38	-153,2	     2120,96	-152,9
     42,5792	     2101,43	-153,1	     2116,76	-153,3
     42,5821	     2096,31	-152,6	     2112,91	-153,1
      42,585	     2089,69	-152,3	     2105,81	-152,9
      42,588	     2082,55	-152,1	     2100,51	-152,9
     42,5909	      2079,4	-152,4	     2093,76	-152,7
     42,5938	     2075,57	-152,5	     2088,94	-152,2
     42,5968	     2073,19	-152,4	     2081,53	-152,4
     42,5997	     2065,53	-152,1	     2077,05	-152,3
     42,6026	     2060,19	-152,2	     2076,49	-152,6
     42,6056	     2050,59	-151,4	     2070,05	-152,0
     42,6085	     2049,51	-151,7	     2067,42	-152,1
     42,6114	     2045,74	-151,7	     2060,37	-151,4
     42,6144	     2038,96	-151,5	     2054,68	-151,7
     42,6173	     2034,72	-151,4	      2050,2	-151,6
     42,6202	     2030,07	-151,8	     2041,38	-151,2
     42,6232	     2024,42	-150,8	     2040,06	-151,4
     42,6261	        2019	-150,5	     2035,43	-151,5
      42,629	     2013,03	-150,4	     2027,97	-150,7
      42,632	     2006,47	-150,5	     2025,43	-150,9
     42,6349	     2004,31	-150,6	     2016,08	-150,3
     42,6378	        2002	-150,8	     2013,74	-150,7
     42,6408	     1993,26	-150,3	     2011,64	-150,5
     42,6437	      1990,9	-150,6	     2006,62	-150,8
     42,6466	     1982,77	-149,6	     2000,65	-150,4
     42,6496	     1975,64	-150,0	     1994,11	-150,4
     42,6525	     1973,84	-150,1	     1989,05	-149,5
     42,6554	      1972,2	-150,5	     1984,76	-149,9
     42,6584	     1965,95	-149,8	     1980,02	-150,1
     42,6613	     1959,18	-149,5	     1973,65	-150,0
     42,6642	     1952,95	-149,1	     1970,42	-149,7
     42,6672	     1946,53	-149,1	     1962,91	-149,5
     42,6701	     1943,88	-148,9	     1958,75	-148,8
      42,673	     1943,17	-149,4	     1953,17	-149,2
      42,676	     1935,02	-149,1	     1947,62	-148,9
     42,6789	      1929,8	-149,3	     1942,76	-149,5
     42,6818	     1925,15	-148,3	     1939,06	-149,0
     42,6847	     1918,91	-148,5	     1933,07	-148,6
     42,6877	     1910,14	-147,9	     1926,93	-148,1
     42,6906	     1908,41	-148,7	      1923,1	-148,3
     42,6936	     1904,96	-148,5	     1923,05	-148,5
     42,6965	     1901,29	-148,6	     1914,92	-148,4
     42,6994	     1894,44	-147,9	      1909,7	-148,2
     42,7023	     1888,85	-147,7	     1902,27	-148,2
     42,7053	     1884,33	-147,9	     1899,23	-147,6
     42,7082	     1882,86	-147,7	     1896,49	-147,6
     42,7111	     1873,73	-147,7	     1888,81	-147,5
     42,7141	     1868,63	-147,9	     1885,94	-147,8
      42,717	     1863,34	-147,4	     1882,02	-147,9
     42,7199	     1858,04	-147,3	     1873,53	-147,3
     42,7229	     1852,97	-147,1	     1869,67	-147,0
     42,7258	      1851,7	-147,1	     1866,75	-147,2
     42,7287	     1846,87	-147,3	     1861,39	-147,4
     42,7317	     1841,02	-146,7	     1859,71	-147,0
     42,7346	     1836,83	-146,9	     1851,91	-147,1
     42,7375	     1829,54	-146,3	     1844,84	-146,4
     42,7405	      1826,1	-146,6	     1840,08	-146,7
     42,7434	     1825,22	-146,6	      1834,5	-146,0
     42,7463	     1818,07	-146,8	     1834,11	-147,0
     42,7493	     1812,95	-146,4	     1828,33	-146,5
     42,7522	     1806,33	-146,0	     1819,89	-145,9
     42,7551	     1800,87	-145,8	     1815,11	-145,9
     42,7581	     1800,55	-146,3	     1809,08	-145,9
      42,761	     1794,71	-145,7	     1808,17	-146,1
     42,7639	     1791,73	-146,3	     1805,64	-145,9
     42,7669	     1783,36	-145,4	     1798,69	-145,8
     42,7698	     1778,55	-145,0	     1794,87	-145,7
     42,7727	     1771,95	-144,9	     1787,29	-145,5
     42,7757	     1769,26	-145,4	     1782,69	-145,5
     42,7786	     1766,55	-145,6	     1778,93	-146,1
     42,7815	     1760,77	-144,8	      1769,4	-145,2
     42,7845	     1753,72	-144,9	      1766,3	-145,8
     42,7874	     1746,53	-144,4	     1759,97	-144,6
     42,7903	        1745	-144,9	     1756,58	-145,0
     42,7933	     1743,26	-144,9	     1756,83	-145,2
     42,7962	     1737,99	-145,0	     1751,71	-145,3
     42,7991	     1734,26	-144,6	      1748,5	-144,7
     42,8021	     1724,85	-144,3	     1739,92	-144,2
      42,805	     1721,01	-144,1	      1734,8	-144,4
     42,8079	     1722,34	-144,6	     1734,22	-144,6
     42,8109	     1716,24	-144,2	     1728,66	-144,6
     42,8138	      1713,4	-144,5	      1723,6	-144,4
     42,8167	     1705,53	-143,8	     1717,77	-144,2
     42,8196	     1700,21	-143,4	     1712,56	-143,8
     42,8226	     1696,62	-144,4	     1708,22	-144,4
     42,8255	      1691,5	-144,0	     1704,05	-143,8
     42,8284	     1689,31	-144,0	     1700,17	-144,1
     42,8314	     1681,31	-143,0	     1694,16	-143,5
     42,8343	     1680,04	-143,6	     1686,85	-143,3
     42,8372	     1672,97	-142,9	     1686,71	-143,6
     42,8402	     1672,06	-143,9	     1684,77	-143,5
     42,8431	     1666,69	-143,3	     1678,73	-143,7
      42,846	     1660,06	-142,8	     1670,71	-142,9
      42,849	     1653,75	-143,1	     1663,56	-143,0
     42,8519	      1650,8	-142,9	     1661,04	-143,0
     42,8548	      1648,4	-143,2	     1660,96	-143,3
     42,8578	     1644,65	-142,7	     1657,61	-143,1
     42,8607	     1638,82	-142,6	     1648,04	-143,0
     42,8636	     1633,46	-142,2	     1643,16	-142,4
     42,8666	     1628,48	-142,4	     1640,85	-142,7
     42,8695	     1629,01	-142,4	     1637,76	-143,2
     42,8724	     1624,05	-142,3	     1631,32	-142,8
     42,8754	        1618	-142,2	     1626,87	-142,6
     42,8783	     1611,35	-142,1	     1621,45	-141,7
     42,8812	      1608,2	-141,7	     1619,99	-142,6
     42,8842	     1605,44	-142,1	     1614,58	-142,2
     42,8871	     1600,74	-142,2	      1610,5	-142,4
       42,89	     1597,08	-142,0	     1604,54	-141,5
      42,893	     1590,26	-141,5	     1600,34	-141,7
     42,8959	     1588,98	-141,5	     1599,17	-142,3
     42,8988	     1585,28	-141,9	     1593,19	-141,7
     42,9018	     1578,24	-141,1	     1586,63	-141,9
     42,9047	     1574,34	-141,3	      1581,4	-141,2
     42,9076	     1567,33	-140,9	     1576,23	-141,3
     42,9106	     1567,24	-141,3	     1576,31	-141,2
     42,9135	     1565,67	-141,4	     1571,89	-141,6
     42,9164	     1558,78	-141,1	     1564,71	-141,2
     42,9194	     1552,39	-140,8	      1562,1	-140,7
     42,9223	     1549,25	-140,9	     1556,28	-141,0
     42,9252	     1547,33	-141,0	     1554,28	-141,1
     42,9282	     1543,53	-140,9	     1548,72	-140,7
     42,9311	     1538,75	-140,5	     1544,87	-140,6
      42,934	     1530,38	-140,4	     1539,66	-140,5
      42,937	     1528,28	-140,3	     1539,97	-140,9
     42,9399	     1524,41	-140,7	     1532,41	-140,4
     42,9428	      1521,8	-140,4	     1526,69	-140,1
     42,9457	        1516	-139,8	     1522,43	-139,9
     42,9487	     1512,72	-140,4	     1519,09	-140,5
     42,9516	     1512,05	-140,0	     1518,87	-140,4
     42,9545	     1506,11	-140,5	     1510,33	-139,8
     42,9575	      1500,2	-139,4	     1505,53	-139,9
     42,9604	     1496,12	-139,8	     1501,87	-139,4
     42,9633	     1493,92	-140,0	     1502,82	-140,3
     42,9663	     1490,68	-140,1	     1496,43	-139,9
     42,9692	     1485,21	-139,4	     1489,68	-139,3
     42,9721	     1479,86	-138,7	     1484,64	-139,2
     42,9751	     1476,41	-139,6	     1483,63	-139,4
      42,978	     1473,62	-139,5	     1481,23	-140,1
     42,9809	     1470,83	-139,8	     1473,87	-139,0
     42,9839	     1463,59	-138,7	        1470	-139,0
     42,9868	     1459,27	-138,9	     1466,03	-138,8
     42,9897	     1457,98	-139,4	     1465,85	-139,4
     42,9927	     1453,97	-139,1	     1460,35	-139,3
     42,9956	     1448,23	-139,1	     1454,88	-138,6
     42,9985	     1442,02	-138,1	     1454,49	-139,3
     43,0015	     1442,43	-138,8	     1447,73	-138,9
     43,0044	     1438,61	-138,7	     1445,23	-138,9
     43,0073	     1435,37	-138,5	     1439,01	-138,5
     43,0103	     1427,21	-138,2	     1437,38	-138,4
     43,0132	      1424,1	-138,1	     1433,54	-139,3
     43,0161	     1424,31	-138,8	      1429,5	-138,6
     43,0191	     1417,47	-138,0	     1423,44	-138,6
      43,022	     1412,98	-137,6	     1419,28	-138,0
     43,0249	     1406,65	-138,0	     1417,23	-138,2
     43,0279	     1408,62	-137,9	     1412,67	-138,4
     43,0308	     1404,66	-137,9	     1408,68	-137,8
     43,0337	     1397,34	-137,3	     1403,21	-138,1
     43,0367	     1392,54	-137,4	     1404,18	-138,3
     43,0396	      1392,1	-138,2	      1398,3	-137,9
     43,0425	     1388,54	-137,3	      1393,8	-137,9
     43,0455	     1384,69	-137,2	      1388,4	-137,3
     43,0484	     1382,05	-137,8	     1387,93	-138,1
     43,0513	     1377,65	-137,6	     1383,57	-137,8
     43,0543	     1373,43	-137,6	     1375,68	-137,1
     43,0572	     1367,93	-136,4	     1376,07	-137,8
     43,0601	     1366,26	-137,3	     1372,12	-137,1
      43,063	     1364,06	-137,3	     1368,12	-137,6
      43,066	     1360,93	-137,3	     1365,05	-136,9
     43,0689	      1352,6	-136,6	     1357,61	-137,0
     43,0718	     1351,07	-136,6	     1357,56	-137,6
     43,0748	     1350,61	-137,1	     1353,11	-136,9
     43,0777	     1346,44	-136,7	     1348,81	-136,7
     43,0806	     1337,96	-136,1	     1349,14	-137,2
     43,0836	     1336,08	-137,0	     1343,61	-136,9
     43,0865	     1334,15	-136,6	     1338,34	-137,0
     43,0894	     1331,66	-136,8	     1333,01	-136,2
     43,0924	     1324,81	-136,0	     1330,85	-136,3
     43,0953	     1324,23	-136,3	     1330,87	-137,1
     43,0982	     1321,83	-136,7	     1323,86	-136,2
     43,1012	     1312,36	-135,9	     1319,16	-136,3
     43,1041	     1310,24	-136,1	     1319,59	-136,9
      43,107	     1308,98	-136,3	     1316,31	-136,5
       43,11	     1307,68	-136,0	     1309,66	-136,3
     43,1129	      1299,6	-135,7	      1305,3	-135,6
     43,1158	     1298,82	-136,1	     1304,35	-136,5
     43,1188	     1294,67	-135,9	     1301,82	-136,3
     43,1217	      1293,1	-136,1	     1294,69	-135,4
     43,1246	     1286,35	-135,1	     1291,76	-135,8
     43,1276	     1287,51	-135,8	      1291,4	-136,0
     43,1305	     1280,86	-135,8	     1284,26	-135,2
     43,1334	     1278,25	-135,2	     1281,59	-135,5
     43,1364	      1272,7	-135,3	     1280,61	-135,5
     43,1393	     1272,12	-135,9	     1275,71	-135,8
     43,1422	     1270,66	-135,7	     1272,16	-135,5
     43,1452	     1263,51	-135,0	     1266,95	-134,9
     43,1481	     1258,89	-135,0	     1268,37	-135,7
      43,151	     1259,74	-135,1	     1262,71	-135,2
      43,154	     1254,89	-135,0	      1257,3	-134,8
     43,1569	     1248,84	-134,6	     1255,92	-134,9
     43,1598	     1247,74	-135,1	     1253,46	-135,1
     43,1628	     1245,25	-135,0	     1248,59	-135,3
     43,1657	     1239,68	-134,3	     1244,52	-134,7
     43,1686	     1234,99	-134,5	     1244,01	-135,0
     43,1716	     1236,43	-134,9	     1237,59	-135,2
     43,1745	     1233,66	-134,6	     1233,98	-134,5
     43,1774	     1225,77	-134,3	     1231,66	-134,4
     43,1804	     1226,52	-134,5	     1231,51	-135,2
     43,1833	     1224,43	-135,0	     1225,87	-134,2
     43,1862	     1217,86	-134,1	     1221,06	-134,4
     43,1891	     1212,68	-134,0	     1219,25	-134,4
     43,1921	     1211,91	-134,5	      1217,7	-134,5
      43,195	     1210,52	-134,3	     1211,58	-134,3
     43,1979	     1205,05	-133,4	     1209,34	-133,7
     43,2009	     1203,42	-134,4	     1208,03	-134,4
     43,2038	     1200,84	-134,2	      1201,3	-134,3
     43,2067	     1197,17	-134,1	     1201,04	-134,2
     43,2097	     1190,59	-133,6	     1195,29	-134,0
     43,2126	     1192,35	-133,9	     1196,05	-134,5
     43,2155	     1187,13	-133,5	     1189,93	-133,5
     43,2185	      1183,2	-133,3	     1187,13	-133,8
     43,2214	     1181,05	-133,6	     1186,48	-134,3
     43,2243	     1180,45	-134,4	     1181,88	-133,9
     43,2273	     1172,72	-133,3	     1175,57	-133,5
     43,2302	     1171,63	-133,3	     1178,01	-134,2
     43,2331	     1170,24	-133,9	     1172,86	-133,4
     43,2361	     1166,58	-133,1	     1168,85	-133,2
      43,239	     1162,98	-133,0	     1164,79	-133,2
     43,2419	     1156,49	-133,2	      1163,2	-133,8
     43,2449	     1156,84	-133,4	     1157,55	-133,0
     43,2478	     1151,11	-132,7	      1160,7	-133,5
     43,2507	     1151,67	-133,6	     1156,66	-133,5
     43,2537	     1150,55	-133,0	     1150,37	-133,6
     43,2566	     1146,73	-133,3	     1146,24	-132,7
     43,2595	      1139,4	-132,5	     1147,57	-133,4
     43,2625	     1140,71	-132,9	      1144,1	-133,6
     43,2654	     1137,04	-132,8	     1137,21	-132,6
     43,2683	     1132,41	-132,9	     1137,47	-133,0
     43,2713	      1128,9	-132,5	     1133,66	-133,3
     43,2742	     1129,37	-133,1	     1130,38	-132,6
     43,2771	     1122,21	-132,1	     1125,16	-132,5
     43,2801	     1119,97	-132,2	     1127,39	-133,5
      43,283	      1120,9	-133,3	     1120,77	-132,4
     43,2859	      1115,7	-132,0	     1116,98	-132,6
     43,2889	      1111,8	-132,1	     1119,16	-132,9
     43,2918	     1112,37	-132,9	     1114,05	-132,3
     43,2947	     1106,57	-132,0	     1110,13	-132,4
     43,2977	     1101,14	-132,2	     1107,83	-132,8
     43,3006	     1104,67	-133,0	     1104,69	-132,3
     43,3035	     1098,78	-132,0	     1099,79	-131,9
     43,3064	     1095,94	-131,9	     1102,08	-132,9
     43,3094	      1093,8	-132,6	     1095,69	-132,0
     43,3123	     1091,07	-132,0	     1090,61	-131,9
     43,3153	     1089,51	-131,6	     1090,97	-132,1
     43,3182	     1084,91	-132,3	     1089,57	-132,1
     43,3211	     1083,89	-132,0	     1083,03	-131,5
      43,324	     1078,66	-131,5	     1083,85	-132,6
      43,327	     1075,31	-131,5	     1079,55	-132,2
     43,3299	     1076,43	-131,8	     1073,21	-131,7
     43,3328	     1071,43	-131,5	      1075,8	-132,2
     43,3358	     1068,84	-132,0	     1070,58	-132,0
     43,3387	     1066,65	-131,6	     1066,04	-131,8
     43,3416	     1064,15	-131,3	     1066,96	-131,7
     43,3446	     1059,62	-131,5	     1063,77	-131,7
     43,3475	      1059,7	-131,7	     1058,08	-130,9
     43,3504	     1055,11	-131,0	     1056,86	-131,3
     43,3534	     1050,83	-131,2	     1057,81	-131,8
     43,3563	      1051,5	-131,5	     1048,97	-131,2
     43,3592	     1047,95	-131,2	     1050,16	-131,6
     43,3622	     1043,47	-131,3	     1051,24	-131,5
     43,3651	     1042,51	-131,0	      1043,3	-131,1
      43,368	     1041,76	-131,5	     1042,11	-131,6
      43,371	     1034,37	-131,0	     1039,07	-131,7
     43,3739	     1036,21	-131,4	     1034,57	-131,3
     43,3768	     1034,35	-130,5	     1032,65	-131,0
     43,3798	     1027,07	-130,8	     1034,11	-131,4
     43,3827	     1025,17	-130,9	     1026,39	-130,8
     43,3856	     1027,21	-131,0	     1026,02	-131,3
     43,3886	     1020,97	-130,6	     1027,58	-131,1
     43,3915	     1020,44	-131,3	     1023,31	-130,8
     43,3944	     1015,62	-130,4	     1016,85	-130,8
     43,3974	     1013,86	-130,5	     1017,35	-131,5
     43,4003	     1012,13	-131,2	     1012,42	-130,3
     43,4032	      1011,1	-130,1	     1009,46	-130,5
     43,4062	     1006,61	-130,3	      1010,8	-131,4
     43,4091	     1001,41	-130,4	     1003,38	-130,2
      43,412	     1004,03	-130,6	     1005,76	-130,5
      43,415	     998,644	-130,0	     1000,91	-131,1
     43,4179	     998,697	-131,1	     996,767	-130,3
     43,4208	      994,62	-130,6	     995,814	-130,2
     43,4238	     991,401	-130,1	     994,029	-131,0
     43,4267	     993,918	-131,1	      989,45	-130,3
     43,4296	     988,167	-130,0	     990,854	-130,9
     43,4326	     983,618	-129,8	     988,616	-130,9
     43,4355	     981,862	-130,5	     982,067	-130,1
     43,4384	      981,54	-130,1	     983,845	-130,5
     43,4413	     977,195	-129,5	     977,348	-130,0
     43,4443	     977,448	-130,4	     975,113	-130,1
     43,4472	     973,708	-130,2	     976,449	-130,3
     43,4501	     969,243	-129,5	     971,694	-130,2
     43,4531	     970,365	-130,4	     968,709	-130,0
      43,456	     965,198	-129,7	     969,604	-130,8
     43,4589	     965,028	-130,2	     963,444	-130,2
     43,4619	     965,442	-130,1	     961,668	-129,5
     43,4648	     957,885	-129,5	       962,6	-130,8
     43,4677	     957,445	-130,2	     958,118	-129,6
     43,4707	     954,613	-129,6	     953,652	-129,5
     43,4736	     952,897	-129,5	     953,457	-130,4
     43,4765	     949,777	-130,1	     949,775	-129,4
     43,4795	     948,746	-129,3	     950,628	-129,9
     43,4824	     945,444	-129,3	      945,79	-129,6
     43,4853	     942,981	-130,0	     942,354	-129,4
     43,4883	     942,927	-129,3	     943,326	-129,7
     43,4912	     938,301	-129,2	     936,741	-129,3
     43,4941	     938,432	-129,9	     934,701	-129,3
     43,4971	     934,585	-129,2	     935,353	-129,2
        43,5	     930,358	-129,1	     930,631	-129,2

