X-Data [Hz]	Piezo (M - Filtered) [mV]	Phase [Deg]	Piezo (M - Filtered) [mV]	Phase [Deg]	
	002: [07-09-24 13:38]		003: [07-09-24 13:42]	
        40,5	     5,55842	72,0	     6,20883	71,3
     40,5029	     5,83868	71,8	     6,23196	71,3
     40,5059	     6,01599	71,6	     6,21166	71,4
     40,5088	     6,12785	71,3	     6,25819	71,7
     40,5117	     6,18646	71,2	     6,24081	71,7
     40,5147	     6,22624	70,9	     6,27251	71,0
     40,5176	     6,28703	71,1	     6,25956	71,8
     40,5205	     6,28441	71,0	      6,2998	71,5
     40,5235	     6,26505	71,1	      6,2807	71,4
     40,5264	     6,29732	70,9	     6,30835	71,7
     40,5293	     6,31846	70,8	     6,30883	71,7
     40,5323	     6,31686	70,8	     6,32727	71,7
     40,5352	     6,34772	70,9	      6,3371	71,9
     40,5381	     6,34118	71,0	      6,3464	71,7
     40,5411	     6,36559	71,5	      6,3503	72,0
      40,544	     6,35955	71,1	      6,3677	71,6
     40,5469	     6,36866	70,9	     6,38678	71,8
     40,5499	     6,40873	71,1	     6,39393	72,0
     40,5528	     6,38175	71,0	     6,41239	71,8
     40,5557	      6,4084	71,1	     6,41309	71,7
     40,5587	     6,42163	71,3	     6,41613	71,7
     40,5616	     6,43284	71,5	     6,44193	71,5
     40,5645	     6,44468	71,4	      6,4402	72,0
     40,5674	     6,44669	71,4	     6,46252	71,5
     40,5704	     6,47955	71,0	     6,46416	71,8
     40,5733	     6,46349	71,5	     6,48851	71,8
     40,5762	     6,49454	71,3	     6,49434	71,7
     40,5792	     6,47771	71,8	     6,49907	71,8
     40,5821	     6,51128	71,4	     6,52046	71,6
      40,585	     6,51311	71,4	       6,513	71,8
      40,588	     6,52024	71,6	     6,54916	71,7
     40,5909	     6,53811	71,4	     6,53867	72,3
     40,5938	     6,53177	71,6	     6,57048	71,7
     40,5968	     6,54786	72,1	     6,56931	72,1
     40,5997	     6,57522	71,6	     6,57138	71,5
     40,6026	     6,57282	71,7	     6,59997	71,7
     40,6056	     6,59286	71,5	     6,60745	72,2
     40,6085	     6,61353	71,6	     6,61839	71,6
     40,6114	      6,6014	71,8	     6,63257	72,0
     40,6144	     6,62757	71,7	     6,63417	72,1
     40,6173	     6,62606	71,5	     6,65387	71,7
     40,6202	     6,65538	72,1	     6,66041	72,0
     40,6232	      6,6523	71,4	     6,67995	71,9
     40,6261	      6,6827	71,7	     6,68056	72,0
      40,629	     6,67054	71,7	     6,70837	72,0
      40,632	     6,69978	71,5	     6,69985	72,4
     40,6349	     6,70236	71,8	     6,73842	72,0
     40,6378	     6,71582	72,0	      6,7228	72,3
     40,6408	     6,73082	71,7	     6,74755	72,1
     40,6437	     6,74144	71,7	     6,75993	71,9
     40,6466	     6,76709	71,4	     6,78162	72,2
     40,6496	     6,75262	71,9	     6,78719	72,1
     40,6525	     6,78087	71,9	     6,80711	71,9
     40,6554	     6,76961	72,0	     6,81554	72,5
     40,6584	     6,81551	71,8	     6,82659	71,8
     40,6613	     6,80521	71,7	     6,82544	72,5
     40,6642	     6,83253	71,7	     6,84481	72,4
     40,6672	      6,8383	71,9	      6,8745	72,0
     40,6701	     6,83894	72,1	     6,86464	72,3
      40,673	     6,84614	72,0	      6,8856	72,2
      40,676	     6,87359	72,0	     6,89214	72,1
     40,6789	     6,86801	71,8	     6,91547	72,4
     40,6818	     6,90695	71,8	     6,92551	72,6
     40,6847	     6,88649	72,0	     6,94335	72,3
     40,6877	     6,92723	72,5	     6,94622	72,6
     40,6906	     6,93413	72,1	     6,97595	72,4
     40,6936	     6,95291	72,2	      6,9698	72,2
     40,6965	     6,96319	71,7	     6,99142	72,4
     40,6994	     6,96611	71,9	     6,98889	72,3
     40,7023	     6,95549	72,4	     7,03123	72,3
     40,7053	     6,99053	72,5	     7,02697	72,6
     40,7082	     7,01265	72,1	     7,02944	72,8
     40,7111	     7,00232	72,4	     7,06134	72,5
     40,7141	      7,0277	72,1	      7,0764	72,7
      40,717	     7,04603	72,3	     7,07897	72,3
     40,7199	     7,05663	72,4	     7,10926	72,5
     40,7229	     7,06122	72,1	     7,11128	72,7
     40,7258	     7,08513	72,5	     7,13359	72,4
     40,7287	     7,10702	72,5	     7,13305	72,6
     40,7317	     7,09837	72,4	     7,15688	72,8
     40,7346	     7,14078	72,5	     7,17183	73,1
     40,7375	     7,14932	72,4	     7,17863	72,6
     40,7405	      7,1571	72,1	     7,20445	73,0
     40,7434	     7,17707	72,5	     7,20101	73,2
     40,7463	     7,18091	72,8	     7,23826	72,8
     40,7493	     7,19484	72,3	     7,22974	73,2
     40,7522	     7,21998	72,5	     7,24678	72,9
     40,7551	     7,22337	72,8	     7,26555	72,7
     40,7581	     7,23864	72,8	     7,28251	73,1
      40,761	     7,26337	72,6	     7,29968	73,2
     40,7639	     7,25415	72,5	     7,30347	73,0
     40,7669	     7,30883	72,7	     7,32171	73,2
     40,7698	     7,29647	72,6	     7,33344	73,4
     40,7727	     7,31584	72,8	     7,34859	73,1
     40,7757	     7,32517	72,8	     7,36806	72,7
     40,7786	     7,35058	72,5	     7,37756	73,4
     40,7815	     7,36294	73,1	     7,39575	73,0
     40,7845	     7,37379	72,5	     7,41376	72,9
     40,7874	     7,38577	72,8	     7,42874	73,1
     40,7903	     7,40115	73,1	      7,4419	73,0
     40,7933	     7,42172	72,9	     7,45814	72,8
     40,7962	     7,42043	73,0	      7,4705	73,3
     40,7991	     7,45972	73,2	     7,48547	73,1
     40,8021	     7,47599	72,9	     7,51489	73,0
      40,805	     7,49377	72,7	     7,51792	73,3
     40,8079	     7,49539	73,2	     7,53688	73,0
     40,8109	     7,50925	73,0	     7,55527	73,3
     40,8138	     7,52758	72,7	     7,55522	73,1
     40,8167	     7,53436	73,1	     7,58677	73,6
     40,8196	      7,5617	72,9	     7,60436	73,0
     40,8226	      7,5698	72,9	     7,62278	73,4
     40,8255	      7,5922	73,2	     7,62014	73,9
     40,8284	     7,60041	72,9	      7,6253	73,7
     40,8314	     7,63079	72,7	     7,66118	73,4
     40,8343	     7,62038	72,9	     7,67461	73,8
     40,8372	     7,64574	72,9	     7,69012	73,8
     40,8402	     7,68004	72,7	     7,70663	73,4
     40,8431	     7,67617	73,0	      7,7231	73,4
      40,846	     7,70876	73,2	     7,74557	73,8
      40,849	      7,7076	73,2	     7,74373	73,5
     40,8519	     7,73365	73,4	     7,78947	73,4
     40,8548	     7,74247	73,2	     7,79567	73,7
     40,8578	     7,75343	73,3	     7,80081	73,5
     40,8607	     7,78078	73,5	     7,82234	73,4
     40,8636	     7,80461	73,2	     7,84585	73,7
     40,8666	     7,78726	73,8	     7,83722	73,8
     40,8695	     7,80726	73,5	     7,89179	73,6
     40,8724	     7,83876	73,2	     7,88064	73,8
     40,8754	     7,82816	73,3	     7,90918	73,5
     40,8783	     7,86485	73,6	     7,93451	73,7
     40,8812	     7,86368	73,4	     7,93824	73,7
     40,8842	     7,85883	73,4	     7,97024	74,0
     40,8871	     7,89935	73,7	     7,99037	73,8
       40,89	     7,89631	73,6	     7,99779	73,9
      40,893	     7,92908	73,4	     8,01612	74,2
     40,8959	     7,93758	73,7	      8,0277	74,4
     40,8988	     7,94247	73,7	     8,04188	74,0
     40,9018	     7,96386	73,5	     8,07047	74,3
     40,9047	     8,00452	73,8	     8,08016	74,5
     40,9076	     7,99938	73,8	     8,10439	73,9
     40,9106	     8,02403	73,8	     8,14333	74,2
     40,9135	     8,04462	73,6	      8,1212	74,0
     40,9164	     8,04288	73,9	     8,17578	74,2
     40,9194	     8,08747	73,8	     8,16992	74,2
     40,9223	     8,09237	73,9	     8,19171	73,9
     40,9252	     8,10414	73,8	     8,23521	74,3
     40,9282	     8,11643	73,9	     8,23163	74,4
     40,9311	     8,13483	74,0	     8,25157	74,4
      40,934	     8,16778	73,6	      8,2568	74,3
      40,937	     8,18125	74,1	     8,29462	74,5
     40,9399	     8,21374	74,0	     8,29695	74,4
     40,9428	     8,22842	74,0	     8,32469	74,2
     40,9457	     8,24961	74,0	      8,3633	74,3
     40,9487	     8,28342	74,3	     8,36979	74,5
     40,9516	     8,30456	74,1	     8,39451	74,2
     40,9545	     8,33891	73,9	     8,39955	74,3
     40,9575	     8,36644	74,1	     8,41664	74,3
     40,9604	     8,37708	74,2	     8,44743	74,3
     40,9633	     8,39955	74,1	     8,45623	74,2
     40,9663	     8,42695	73,9	     8,50779	74,6
     40,9692	     8,44465	74,0	     8,49248	75,0
     40,9721	     8,45794	74,2	     8,53328	74,7
     40,9751	     8,48592	74,0	     8,55106	74,8
      40,978	       8,523	74,0	     8,54819	74,9
     40,9809	     8,50479	74,0	     8,58894	74,9
     40,9839	     8,54505	74,1	      8,6079	74,8
     40,9868	     8,56631	74,1	     8,61177	74,6
     40,9897	     8,56766	74,4	     8,65738	74,9
     40,9927	     8,60274	74,7	     8,68279	74,8
     40,9956	     8,60784	74,3	     8,68741	74,7
     40,9985	     8,63129	74,6	     8,71906	74,7
     41,0015	     8,66681	74,7	     8,73179	75,1
     41,0044	      8,6859	74,6	     8,74418	75,0
     41,0073	     8,71049	74,7	     8,78763	75,0
     41,0103	     8,73311	74,5	     8,77996	75,3
     41,0132	      8,7484	74,5	     8,83684	75,3
     41,0161	     8,77861	74,7	     8,83418	75,3
     41,0191	     8,79029	74,4	     8,86394	74,9
      41,022	     8,81186	74,7	     8,88521	75,1
     41,0249	     8,84145	75,0	     8,90468	75,1
     41,0279	     8,85917	75,1	      8,9449	74,8
     41,0308	     8,89246	74,9	     8,95498	75,2
     41,0337	     8,90919	75,1	     8,98056	75,3
     41,0367	      8,9315	75,0	     9,00635	75,7
     41,0396	     8,95974	74,8	     9,02583	75,2
     41,0425	     8,97625	74,5	     9,04977	75,3
     41,0455	     8,99309	74,8	      9,0662	75,1
     41,0484	     9,03193	74,9	      9,0963	75,4
     41,0513	     9,02872	74,8	     9,13769	75,4
     41,0543	     9,07133	74,8	     9,13929	75,2
     41,0572	     9,08241	75,1	     9,16861	75,2
     41,0601	     9,12639	75,5	     9,19581	75,7
      41,063	     9,12384	75,2	     9,22882	75,9
      41,066	     9,15572	75,2	     9,24605	75,5
     41,0689	     9,19016	75,2	     9,26967	75,6
     41,0718	     9,21037	75,1	     9,29556	76,0
     41,0748	     9,22274	75,1	     9,30771	76,0
     41,0777	     9,26379	75,1	     9,34721	75,6
     41,0806	     9,27731	75,0	     9,37001	76,0
     41,0836	     9,28274	75,5	     9,39009	76,0
     41,0865	     9,33951	75,7	     9,43116	75,9
     41,0894	      9,3494	75,4	     9,44325	76,1
     41,0924	     9,35965	75,7	     9,47388	75,8
     41,0953	     9,39142	75,9	     9,50195	76,4
     41,0982	     9,42293	75,6	     9,51756	76,3
     41,1012	     9,43107	75,3	      9,5415	75,9
     41,1041	     9,46585	75,4	     9,58737	75,8
      41,107	      9,4891	75,4	     9,58712	76,3
       41,11	     9,50085	75,8	     9,62886	76,1
     41,1129	     9,54619	75,6	     9,65616	76,2
     41,1158	     9,57892	75,6	     9,68616	76,1
     41,1188	     9,59518	75,9	     9,71142	76,4
     41,1217	     9,62732	75,8	     9,74274	76,6
     41,1246	     9,66457	75,7	     9,77639	76,4
     41,1276	     9,68318	75,5	     9,79393	76,2
     41,1305	     9,69683	75,7	     9,83571	76,1
     41,1334	     9,73237	75,9	     9,86002	76,3
     41,1364	     9,74674	76,2	     9,89082	76,3
     41,1393	     9,79971	75,7	     9,91252	76,4
     41,1422	     9,81349	76,1	       9,933	76,5
     41,1452	     9,82708	76,1	     9,96018	76,6
     41,1481	     9,85982	76,2	     9,98692	77,0
      41,151	     9,92356	76,1	     10,0075	76,6
      41,154	     9,91072	75,9	     10,0527	76,4
     41,1569	     9,93985	76,3	     10,1019	76,4
     41,1598	     9,97272	76,4	     10,1219	76,8
     41,1628	     10,0054	76,7	     10,1574	76,8
     41,1657	     10,0401	76,3	     10,1762	77,1
     41,1686	     10,0742	76,5	     10,2064	76,9
     41,1716	     10,0863	76,6	     10,2291	76,8
     41,1745	     10,1375	76,5	     10,2455	77,0
     41,1774	     10,1618	76,3	     10,2934	77,1
     41,1804	     10,2169	76,1	     10,3273	77,0
     41,1833	     10,2297	76,3	     10,3766	77,1
     41,1862	     10,2692	76,9	     10,3968	77,1
     41,1891	     10,3025	77,0	      10,416	77,4
     41,1921	     10,3246	76,6	     10,4619	77,4
      41,195	     10,3661	76,9	     10,5117	77,2
     41,1979	     10,3984	76,9	     10,5299	77,2
     41,2009	     10,4164	76,8	      10,553	77,4
     41,2038	     10,4507	76,5	     10,6011	77,7
     41,2067	     10,4798	76,8	     10,6292	77,6
     41,2097	     10,5121	77,0	     10,6567	77,5
     41,2126	     10,5543	77,1	      10,708	77,7
     41,2155	     10,5623	77,3	     10,7395	77,8
     41,2185	     10,6217	77,1	     10,7732	77,7
     41,2214	      10,653	77,1	     10,8012	77,5
     41,2243	     10,6795	77,0	     10,8463	77,5
     41,2273	     10,7086	77,0	     10,8876	78,0
     41,2302	     10,7401	77,0	     10,9174	78,1
     41,2331	     10,7628	77,2	     10,9684	77,9
     41,2361	      10,805	77,1	     10,9946	78,0
      41,239	     10,8298	77,8	     11,0318	77,8
     41,2419	     10,8912	77,6	      11,068	78,0
     41,2449	     10,9347	77,2	     11,1171	78,3
     41,2478	     10,9528	77,2	     11,1648	78,4
     41,2507	     10,9648	77,4	     11,1946	78,3
     41,2537	     11,0123	77,8	      11,213	78,2
     41,2566	     11,0545	77,9	     11,2481	78,0
     41,2595	      11,078	77,8	     11,3071	78,5
     41,2625	     11,1272	77,5	     11,3484	78,6
     41,2654	     11,1683	77,8	     11,3661	78,8
     41,2683	     11,2047	77,9	     11,4088	78,7
     41,2713	     11,2084	78,2	      11,461	78,9
     41,2742	     11,2727	78,4	      11,498	78,9
     41,2771	     11,3072	78,0	      11,534	78,9
     41,2801	     11,3377	78,4	      11,589	78,8
      41,283	     11,3779	78,4	     11,6224	79,1
     41,2859	     11,4178	78,3	     11,6882	79,0
     41,2889	      11,451	78,4	     11,7272	79,3
     41,2918	     11,4944	78,2	     11,7459	79,1
     41,2947	     11,5553	78,4	     11,7981	79,0
     41,2977	     11,5977	78,6	     11,8577	78,9
     41,3006	     11,6451	78,6	      11,939	79,2
     41,3035	     11,6733	78,5	     11,9591	79,5
     41,3064	     11,7107	78,5	     11,9738	79,5
     41,3094	     11,7357	78,7	     12,0274	79,5
     41,3123	      11,803	78,9	     12,0828	79,3
     41,3153	     11,8352	79,1	     12,1332	79,4
     41,3182	     11,8772	78,9	      12,154	79,7
     41,3211	     11,9261	78,8	     12,2212	80,0
      41,324	      11,953	78,7	     12,2784	80,1
      41,327	     11,9989	79,0	     12,3184	80,1
     41,3299	     12,0645	79,4	     12,3746	79,7
     41,3328	     12,0829	79,5	      12,426	80,2
     41,3358	     12,1249	79,2	     12,4799	80,2
     41,3387	     12,1962	79,1	     12,5305	80,6
     41,3416	     12,2492	79,1	     12,5791	80,5
     41,3446	     12,2841	79,4	      12,652	80,4
     41,3475	     12,3451	79,5	     12,7161	80,3
     41,3504	     12,3646	79,7	     12,7606	80,5
     41,3534	     12,4232	79,4	     12,8101	80,5
     41,3563	     12,4813	79,5	     12,8702	81,2
     41,3592	       12,52	79,6	     12,9277	81,0
     41,3622	     12,5658	80,0	     13,0146	80,9
     41,3651	     12,6269	80,2	     13,0572	81,0
      41,368	     12,7142	79,9	     13,1173	80,8
      41,371	     12,7719	79,9	     13,1467	81,1
     41,3739	     12,8251	79,9	     13,2114	81,0
     41,3768	     12,8752	80,0	     13,2783	81,2
     41,3798	     12,9181	80,2	     13,3563	81,2
     41,3827	     12,9637	80,4	     13,4157	81,2
     41,3856	     13,0213	80,4	     13,4829	81,6
     41,3886	     13,0749	80,3	     13,5418	81,6
     41,3915	      13,121	80,2	     13,6236	82,1
     41,3944	     13,1763	80,5	     13,7056	81,9
     41,3974	     13,2603	80,9	     13,7676	82,0
     41,4003	     13,3267	81,0	     13,8449	82,2
     41,4032	     13,3741	80,9	     13,9335	82,3
     41,4062	     13,4307	80,9	     14,0038	82,4
     41,4091	     13,5061	81,0	       14,13	82,5
      41,412	     13,5473	81,1	     14,2413	82,9
      41,415	     13,6255	81,6	     14,2835	82,8
     41,4179	     13,6945	81,6	       14,23	83,2
     41,4208	      13,749	81,4	     14,3273	82,2
     41,4238	     13,8075	81,2	     15,1796	80,3
     41,4267	     13,8575	81,3	     17,3411	80,0
     41,4296	     13,9385	81,8	     21,2511	83,6
     41,4326	     14,0161	82,1	     24,7459	89,4
     41,4355	     14,0908	82,1	     27,9198	95,7
     41,4384	     14,1463	82,0	     30,5594	101,6
     41,4413	     14,2052	82,2	     33,0513	108,1
     41,4443	      14,297	82,3	     34,7222	112,8
     41,4472	     14,3792	82,5	     36,0407	117,2
     41,4501	      14,453	82,6	     37,1045	120,8
     41,4531	     14,5128	82,6	     37,9906	123,7
      41,456	     14,6053	83,0	     38,8555	126,7
     41,4589	     14,6929	82,5	     39,3937	129,0
     41,4619	     14,7541	82,8	     39,8664	131,2
     41,4648	     14,8202	82,8	     40,2544	132,9
     41,4677	     14,8887	82,8	     40,6192	134,4
     41,4707	     14,9477	83,1	     40,9504	136,3
     41,4736	     15,0302	83,5	      41,192	137,6
     41,4765	     15,1095	83,8	     41,3968	139,1
     41,4795	     15,2315	83,7	     41,5877	139,9
     41,4824	     15,3184	83,6	     41,7869	141,3
     41,4853	     15,3968	83,6	     41,9268	142,4
     41,4883	     15,4868	84,0	     42,0396	143,3
     41,4912	     15,5755	84,4	     42,1408	144,3
     41,4941	     15,6774	84,2	     42,2204	144,9
     41,4971	     15,7994	84,2	     42,3437	145,6
        41,5	     15,8915	84,3	     42,4116	146,0
     41,5029	     16,0023	84,8	     42,4675	146,8
     41,5059	     16,1096	84,7	     42,5269	147,7
     41,5088	     16,2179	84,8	     42,5623	148,0
     41,5117	     16,3115	84,9	     42,6255	149,0
     41,5147	     16,4408	85,5	     42,6588	149,4
     41,5176	     16,5353	85,9	     42,6899	150,4
     41,5205	     16,6403	85,9	     42,7259	150,7
     41,5235	     16,7597	85,7	     42,7451	151,0
     41,5264	     16,9005	85,7	     42,7605	151,5
     41,5293	     17,0141	86,0	     42,7992	152,5
     41,5323	     17,1458	86,4	     42,8024	153,2
     41,5352	     17,2616	86,4	     42,8222	153,5
     41,5381	     17,4211	87,0	     42,8149	153,9
     41,5411	     17,5421	86,9	      42,828	154,1
      41,544	     17,6598	87,2	     42,8396	154,8
     41,5469	     17,7939	87,4	     42,8381	155,1
     41,5499	     17,9426	87,4	     42,8308	155,2
     41,5528	     18,1241	87,9	     42,8393	156,0
     41,5557	     18,2843	88,3	       42,84	156,7
     41,5587	     18,4592	88,7	     42,8232	157,2
     41,5616	     18,6373	88,7	     42,8231	157,2
     41,5645	     18,8732	89,1	      42,824	157,6
     41,5674	      19,075	89,2	      42,784	157,7
     41,5704	     19,2525	89,6	     42,7587	158,4
     41,5733	     19,4206	89,9	     42,7379	158,4
     41,5762	     19,6472	90,6	     42,7253	158,8
     41,5792	     19,8843	90,8	     42,7058	159,5
     41,5821	     20,1202	91,5	     42,6857	160,1
      41,585	     20,3717	91,8	     42,6771	160,4
      41,588	     20,6512	92,2	     42,6492	160,5
     41,5909	     20,9771	92,4	     42,6304	160,6
     41,5938	      21,274	92,8	     42,5997	161,2
     41,5968	     21,6027	93,8	     42,5818	161,6
     41,5997	       21,97	94,1	     42,5552	161,7
     41,6026	     22,4113	95,2	     42,5283	161,8
     41,6056	     22,8117	95,8	      42,504	162,4
     41,6085	     23,2245	96,8	     42,4556	162,9
     41,6114	     23,6644	97,8	      42,426	163,1
     41,6144	     24,1666	98,5	     42,4073	163,3
     41,6173	     24,8066	99,4	     42,3696	163,7
     41,6202	     25,3923	100,9	       42,34	164,0
     41,6232	     26,0589	102,5	     42,3037	164,3
     41,6261	     26,7962	103,9	     42,2856	164,3
      41,629	     27,5852	105,6	     42,2467	165,0
      41,632	     28,7049	108,7	      42,212	165,4
     41,6349	     29,7564	111,6	     42,1741	165,7
     41,6378	      30,979	114,9	     42,1473	165,7
     41,6408	     32,2984	118,4	      42,107	166,2
     41,6437	     33,8015	123,1	     42,0815	166,2
     41,6466	     35,7589	129,2	     42,0387	166,6
     41,6496	     37,4547	135,6	     42,0059	166,6
     41,6525	     39,1694	142,4	     41,9607	167,1
     41,6554	     40,6296	149,6	     41,9284	167,3
     41,6584	     41,8055	156,4	     41,8863	167,7
     41,6613	     42,6179	163,3	     41,8449	167,7
     41,6642	     42,8734	167,0	     41,7919	167,9
     41,6672	      42,799	169,1	     41,7666	168,6
     41,6701	     42,5964	170,4	     41,7288	168,6
      41,673	     42,3658	170,2	     41,6744	168,6
      41,676	     42,1856	169,9	     41,6139	168,8
     41,6789	     42,0865	169,8	     41,5869	169,4
     41,6818	     42,0188	170,0	     41,5729	169,4
     41,6847	     41,9548	170,0	     41,5212	169,6
     41,6877	     41,9058	170,5	     41,4733	169,9
     41,6906	     41,8529	170,7	     41,4265	170,1
     41,6936	     41,8161	171,3	      41,358	170,7
     41,6965	     41,7726	171,2	     41,3282	170,7
     41,6994	     41,7132	171,4	     41,2916	171,1
     41,7023	     41,6788	171,8	      41,246	171,5
     41,7053	     41,6351	172,2	     41,1848	171,3
     41,7082	     41,5677	172,0	     41,1354	171,3
     41,7111	     41,5164	172,0	      41,093	171,6
     41,7141	      41,452	172,5	      41,034	172,0
      41,717	     41,3975	172,7	     41,0042	172,0
     41,7199	     41,3191	173,0	     40,9848	172,4
     41,7229	     41,2821	173,0	     40,9147	172,8
     41,7258	     41,2395	173,5	     40,8551	173,1
     41,7287	     41,1929	173,8	     40,8085	172,8
     41,7317	     41,1387	173,8	     40,7647	173,2
     41,7346	      41,091	174,0	     40,7212	173,6
     41,7375	     41,0295	174,6	     40,6639	173,8
     41,7405	     40,9688	174,6	     40,6177	173,9
     41,7434	     40,9041	174,5	     40,5848	174,4
     41,7463	     40,8561	174,6	     40,5389	174,6
     41,7493	     40,8018	175,1	     40,4802	174,5
     41,7522	     40,7456	175,1	     40,4238	174,3
     41,7551	     40,6786	175,6	     40,3899	175,0
     41,7581	     40,6261	175,5	     40,3471	174,9
      41,761	     40,5754	176,1	     40,2775	175,1
     41,7639	     40,5216	176,2	     40,2225	175,3
     41,7669	     40,4683	176,1	     40,1848	176,0
     41,7698	      40,414	176,4	     40,1464	175,8
     41,7727	     40,3578	176,9	     40,0818	176,0
     41,7757	     40,3047	176,7	      40,015	176,7
     41,7786	     40,2382	176,7	     39,9781	176,8
     41,7815	     40,1821	177,0	     39,9291	176,8
     41,7845	     40,1256	177,2	     39,8742	177,2
     41,7874	     40,0821	177,3	     39,8226	177,1
     41,7903	     40,0353	177,6	     39,7615	177,2
     41,7933	     39,9769	177,9	     39,7094	177,3
     41,7962	      39,908	178,2	     39,6695	177,8
     41,7991	     39,8417	178,2	     39,5962	177,8
     41,8021	     39,7851	178,6	     39,5523	177,8
      41,805	     39,7374	178,6	     39,5043	178,1
     41,8079	     39,6718	178,9	     39,4629	178,3
     41,8109	      39,634	179,0	     39,4142	178,2
     41,8138	     39,5719	179,6	     39,3501	178,7
     41,8167	     39,5489	179,7	     39,2938	178,9
     41,8196	     39,4664	179,8	     39,2341	178,8
     41,8226	     39,4005	179,6	     39,1617	178,9
     41,8255	     39,3448	179,8	     39,1045	179,5
     41,8284	       39,29	179,8	     39,0694	179,4
     41,8314	     39,2419	180,2	     38,9964	179,8
     41,8343	     39,1598	180,6	     38,9642	180,1
     41,8372	     39,0917	180,6	     38,9182	180,3
     41,8402	     39,0508	180,5	     38,8508	180,2
     41,8431	      38,996	180,9	     38,7992	180,5
      41,846	     38,9365	180,9	     38,7444	180,8
      41,849	     38,8625	181,4	     38,6929	180,9
     41,8519	     38,8192	181,5	     38,6499	180,8
     41,8548	     38,7467	182,0	     38,5813	181,0
     41,8578	     38,7162	181,7	     38,5297	181,3
     41,8607	      38,652	182,0	     38,4679	181,2
     41,8636	     38,5885	182,6	     38,4191	181,7
     41,8666	     38,5321	182,5	     38,3781	182,0
     41,8695	     38,4758	182,6	     38,3119	182,0
     41,8724	     38,4019	182,9	     38,2518	181,9
     41,8754	     38,3475	182,8	      38,198	182,5
     41,8783	     38,2895	182,7	     38,1439	182,1
     41,8812	     38,2367	183,2	     38,0932	182,6
     41,8842	      38,164	183,4	     38,0217	182,9
     41,8871	      38,115	183,3	     37,9668	183,0
       41,89	     38,0599	183,4	     37,9223	183,3
      41,893	     37,9879	183,9	      37,864	183,5
     41,8959	     37,9217	183,7	     37,8184	183,7
     41,8988	     37,8548	184,1	     37,7604	183,7
     41,9018	     37,8128	184,1	     37,7151	184,1
     41,9047	     37,7504	184,3	     37,6396	184,1
     41,9076	      37,697	184,3	      37,578	184,0
     41,9106	     37,6321	184,7	     37,5037	184,3
     41,9135	     37,5781	185,1	     37,4641	184,7
     41,9164	     37,5111	184,9	     37,4216	184,5
     41,9194	     37,4759	185,2	     37,3572	184,4
     41,9223	     37,4208	185,5	     37,2822	185,0
     41,9252	     37,3448	185,7	     37,2341	185,0
     41,9282	     37,2838	185,7	     37,1812	185,3
     41,9311	     37,2055	186,1	      37,131	185,2
      41,934	      37,157	185,9	     37,0736	185,6
      41,937	     37,1092	186,1	     37,0118	185,5
     41,9399	     37,0531	186,5	      36,973	186,0
     41,9428	     36,9893	186,6	     36,9324	186,1
     41,9457	      36,945	186,7	     36,8723	186,2
     41,9487	      36,868	187,1	     36,8047	186,4
     41,9516	     36,7981	187,2	     36,7467	186,6
     41,9545	     36,7561	187,0	     36,6716	186,5
     41,9575	     36,6973	187,6	     36,6147	186,9
     41,9604	     36,6388	187,4	     36,5679	187,2
     41,9633	     36,5597	187,5	     36,5275	187,0
     41,9663	     36,4922	187,5	     36,4759	187,3
     41,9692	     36,4424	187,8	     36,4157	187,4
     41,9721	     36,3776	187,7	     36,3584	187,6
     41,9751	     36,3127	188,1	      36,281	187,8
      41,978	     36,2605	188,2	     36,2295	187,9
     41,9809	     36,2144	188,1	     36,1739	187,8
     41,9839	     36,1546	188,4	     36,0994	188,4
     41,9868	     36,0941	188,7	     36,0609	188,7
     41,9897	     36,0259	188,7	     36,0025	188,4
     41,9927	     35,9603	188,7	     35,9464	188,9
     41,9956	      35,909	189,2	     35,8798	189,2
     41,9985	     35,8602	189,0	     35,8281	189,1
     42,0015	     35,7976	189,3	     35,7769	189,4
     42,0044	     35,7271	189,7	     35,7328	189,5
     42,0073	     35,6713	189,7	     35,6695	189,3
     42,0103	      35,615	189,6	     35,5717	189,7
     42,0132	     35,5406	189,9	     35,5035	189,7
     42,0161	     35,4781	190,1	     35,4546	189,6
     42,0191	     35,4083	190,2	     35,4036	190,1
      42,022	     35,3588	190,4	     35,3514	190,3
     42,0249	     35,3204	190,3	     35,2931	190,1
     42,0279	     35,2609	190,6	     35,2215	190,5
     42,0308	     35,1933	190,9	     35,1904	190,5
     42,0337	     35,1409	190,9	     35,1322	190,7
     42,0367	     35,0759	191,1	      35,077	191,1
     42,0396	     35,0038	191,6	     35,0099	191,0
     42,0425	     34,9489	191,4	     34,9473	191,2
     42,0455	     34,9076	191,5	     34,8923	191,4
     42,0484	     34,8368	191,7	     34,8382	191,5
     42,0513	     34,7866	191,6	     34,7887	191,6
     42,0543	     34,7059	192,0	     34,7172	191,9
     42,0572	     34,6331	192,2	     34,6553	191,5
     42,0601	     34,5852	192,0	     34,5887	192,0
      42,063	     34,5228	192,4	     34,5308	192,5
      42,066	     34,4676	192,8	     34,4785	192,3
     42,0689	     34,4045	192,6	     34,4309	192,5
     42,0718	     34,3401	192,8	     34,3903	192,3
     42,0748	     34,2723	192,9	     34,3014	192,5
     42,0777	     34,2309	192,9	       34,23	192,9
     42,0806	     34,1903	193,3	     34,1947	192,8
     42,0836	     34,0953	193,4	     34,1366	193,0
     42,0865	     34,0233	193,4	     34,0594	193,4
     42,0894	     33,9625	193,6	     34,0179	193,0
     42,0924	     33,9146	193,4	     33,9543	193,4
     42,0953	      33,871	193,6	     33,8932	193,5
     42,0982	     33,7915	194,1	     33,8384	193,4
     42,1012	     33,7006	193,7	     33,7881	193,8
     42,1041	     33,6168	194,0	       33,74	194,0
      42,107	     33,5643	194,3	      33,669	193,8
       42,11	     33,5436	194,0	     33,6053	194,5
     42,1129	     33,5086	194,4	     33,5596	194,1
     42,1158	     33,4378	194,7	     33,4932	194,3
     42,1188	     33,3786	194,6	      33,428	194,7
     42,1217	     33,2769	194,8	     33,3836	194,5
     42,1246	     33,2152	194,7	     33,3088	194,7
     42,1276	     33,1751	194,9	     33,2634	195,0
     42,1305	     33,1555	195,2	     33,2014	194,8
     42,1334	     33,0762	195,3	     33,1469	195,4
     42,1364	      33,016	195,5	     33,1009	195,3
     42,1393	     32,9399	195,7	     33,0179	195,1
     42,1422	     32,8811	195,7	     32,9715	195,7
     42,1452	     32,8074	195,7	     32,9259	195,5
     42,1481	     32,7617	195,9	      32,853	196,2
      42,151	     32,6969	195,9	     32,7809	196,1
      42,154	     32,6363	196,4	     32,7204	196,0
     42,1569	     32,5857	196,3	     32,6649	196,5
     42,1598	     32,5234	196,3	     32,6039	196,4
     42,1628	     32,4588	196,8	     32,5515	196,5
     42,1657	     32,4133	196,8	     32,5035	197,0
     42,1686	      32,352	197,2	     32,4665	196,9
     42,1716	     32,2952	197,1	     32,3883	197,2
     42,1745	     32,2291	197,2	     32,3117	197,2
     42,1774	     32,1288	197,6	     32,2801	197,2
     42,1804	     32,0888	197,4	     32,2017	197,5
     42,1833	     32,0299	197,8	     32,1461	197,5
     42,1862	     31,9561	197,9	     32,0883	197,5
     42,1891	      31,901	197,6	     32,0413	197,9
     42,1921	      31,847	198,1	     31,9964	197,6
      42,195	     31,7807	198,3	     31,9346	198,0
     42,1979	     31,7153	198,2	     31,8484	198,3
     42,2009	     31,6521	198,6	     31,7985	198,0
     42,2038	      31,589	198,2	     31,7441	198,3
     42,2067	     31,5292	198,5	     31,7012	198,0
     42,2097	     31,4717	198,9	     31,6246	198,6
     42,2126	     31,3971	198,7	     31,5728	198,4
     42,2155	     31,3327	198,7	     31,5355	198,6
     42,2185	     31,2736	198,8	     31,4563	198,8
     42,2214	     31,2255	198,9	     31,4062	198,8
     42,2243	      31,169	198,9	     31,3403	199,4
     42,2273	     31,1163	198,9	     31,2668	199,3
     42,2302	     31,0604	199,4	     31,2061	199,1
     42,2331	     30,9846	199,3	     31,1634	199,7
     42,2361	     30,9259	199,6	     31,1329	199,6
      42,239	      30,847	199,8	     31,0504	199,6
     42,2419	     30,7954	199,6	     30,9919	199,9
     42,2449	     30,7304	200,0	     30,9261	199,9
     42,2478	      30,684	-160,0	      30,896	-159,7
     42,2507	     30,6271	-160,0	      30,813	-159,8
     42,2537	     30,5664	-159,4	     30,7405	-159,6
     42,2566	     30,4981	-159,5	     30,7185	-159,3
     42,2595	     30,4578	-159,3	     30,6546	-159,8
     42,2625	     30,3993	-159,5	     30,5788	-159,3
     42,2654	     30,3465	-159,3	     30,5291	-159,4
     42,2683	     30,2669	-158,8	     30,4745	-159,4
     42,2713	     30,1922	-159,3	     30,4229	-159,4
     42,2742	     30,1478	-158,9	     30,3382	-159,3
     42,2771	     30,0625	-158,6	     30,2714	-158,9
     42,2801	     30,0309	-158,8	     30,2354	-159,0
      42,283	     29,9725	-158,5	     30,1741	-158,5
     42,2859	     29,9069	-158,8	     30,1313	-158,4
     42,2889	     29,8254	-158,4	     30,0626	-158,6
     42,2918	     29,7745	-158,6	     30,0008	-158,1
     42,2947	      29,716	-158,5	     29,9371	-158,3
     42,2977	     29,6438	-158,2	     29,8912	-157,8
     42,3006	     29,6033	-158,2	     29,8361	-157,9
     42,3035	     29,5288	-157,7	     29,7707	-157,8
     42,3064	     29,5031	-157,9	     29,7188	-157,2
     42,3094	     29,4334	-157,7	     29,6604	-157,9
     42,3123	      29,357	-157,3	     29,6043	-157,5
     42,3153	     29,2982	-157,7	     29,5494	-157,7
     42,3182	     29,2356	-157,4	     29,4701	-157,5
     42,3211	     29,1656	-157,2	     29,4131	-157,1
      42,324	     29,1207	-157,2	     29,3513	-157,5
      42,327	     29,0496	-157,1	     29,3183	-156,7
     42,3299	     29,0074	-157,3	     29,2456	-157,0
     42,3328	       28,94	-156,9	     29,1969	-156,7
     42,3358	     28,8675	-156,8	     29,1361	-156,6
     42,3387	     28,8138	-156,8	      29,067	-156,4
     42,3416	     28,7578	-156,8	     29,0296	-156,3
     42,3446	      28,713	-156,4	     28,9676	-156,3
     42,3475	     28,6576	-156,1	     28,9076	-156,0
     42,3504	     28,5799	-156,3	     28,8597	-156,4
     42,3534	      28,533	-155,8	     28,7805	-156,1
     42,3563	     28,4576	-156,0	      28,726	-156,1
     42,3592	     28,4057	-155,9	      28,673	-156,0
     42,3622	     28,3579	-156,1	     28,6227	-155,7
     42,3651	     28,3209	-155,8	      28,564	-155,8
      42,368	     28,2546	-155,5	     28,5006	-155,3
      42,371	     28,1735	-155,7	     28,4442	-155,4
     42,3739	     28,1132	-155,3	     28,3882	-155,3
     42,3768	      28,052	-155,4	       28,33	-155,1
     42,3798	     27,9975	-155,4	      28,274	-155,0
     42,3827	     27,9337	-155,1	      28,218	-154,9
     42,3856	     27,8853	-155,1	     28,1731	-154,7
     42,3886	     27,8303	-154,9	     28,1002	-154,7
     42,3915	     27,7643	-154,9	     28,0515	-155,0
     42,3944	     27,7132	-154,5	     27,9897	-154,6
     42,3974	     27,6445	-154,9	     27,9287	-154,6
     42,4003	     27,5849	-154,2	     27,8648	-154,7
     42,4032	     27,5307	-154,3	     27,8156	-154,1
     42,4062	     27,4694	-154,5	     27,7665	-154,2
     42,4091	      27,411	-154,3	     27,7191	-153,8
      42,412	     27,3738	-154,2	     27,6374	-154,1
      42,415	     27,2925	-154,0	     27,5841	-153,6
     42,4179	     27,2361	-154,1	     27,5444	-153,7
     42,4208	     27,1873	-153,5	     27,4678	-153,6
     42,4238	     27,1281	-153,6	     27,4164	-153,7
     42,4267	     27,0828	-153,4	     27,3647	-153,8
     42,4296	     27,0222	-153,2	     27,3141	-153,3
     42,4326	     26,9631	-153,5	     27,2496	-153,5
     42,4355	     26,8886	-153,3	     27,1956	-152,9
     42,4384	     26,8452	-153,2	     27,1241	-153,1
     42,4413	     26,7912	-153,1	     27,0719	-153,0
     42,4443	     26,7352	-153,4	     27,0322	-152,7
     42,4472	     26,6865	-152,9	     26,9642	-152,5
     42,4501	     26,6251	-152,8	     26,9251	-152,6
     42,4531	     26,5788	-152,5	     26,8575	-152,8
      42,456	     26,4844	-152,3	     26,7826	-152,7
     42,4589	     26,4323	-152,5	     26,7269	-152,9
     42,4619	      26,384	-152,3	     26,6784	-152,3
     42,4648	     26,3496	-152,6	     26,6309	-152,4
     42,4677	     26,2833	-152,1	     26,5751	-152,0
     42,4707	     26,2015	-152,3	     26,5425	-151,9
     42,4736	      26,175	-152,0	     26,4638	-152,1
     42,4765	     26,1169	-152,0	     26,4004	-151,6
     42,4795	     26,0546	-152,0	      26,326	-151,9
     42,4824	      25,998	-151,5	     26,2819	-151,7
     42,4853	     25,9584	-151,6	     26,2311	-151,6
     42,4883	     25,8827	-151,3	     26,1855	-151,3
     42,4912	     25,8241	-151,5	     26,1408	-151,7
     42,4941	     25,7687	-151,3	     26,0806	-151,3
     42,4971	     25,7174	-151,4	      26,015	-151,3
        42,5	     25,6711	-151,1	     25,9314	-151,1
     42,5029	     25,6108	-151,2	     25,9042	-150,9
     42,5059	     25,5634	-150,9	     25,8474	-150,8
     42,5088	     25,5084	-150,8	     25,7836	-150,9
     42,5117	       25,44	-150,5	     25,7454	-151,0
     42,5147	     25,3771	-150,6	     25,6822	-150,7
     42,5176	     25,3233	-150,3	     25,6267	-150,7
     42,5205	     25,2531	-150,2	     25,5754	-150,3
     42,5235	     25,2058	-150,6	     25,5115	-150,4
     42,5264	     25,1694	-150,4	     25,4639	-150,0
     42,5293	     25,0818	-150,6	     25,4072	-150,2
     42,5323	     25,0224	-150,3	      25,356	-150,2
     42,5352	     24,9929	-150,4	     25,2852	-150,4
     42,5381	     24,9486	-149,8	     25,2328	-149,9
     42,5411	      24,893	-150,2	     25,1781	-150,2
      42,544	     24,8308	-149,7	     25,1159	-149,7
     42,5469	     24,7757	-149,8	     25,0737	-149,8
     42,5499	     24,7555	-149,7	     25,0095	-149,8
     42,5528	     24,6904	-149,6	     24,9721	-149,3
     42,5557	     24,6356	-149,1	      24,904	-149,5
     42,5587	     24,5523	-149,3	     24,8449	-149,5
     42,5616	     24,4981	-149,2	     24,7986	-149,5
     42,5645	     24,4388	-149,1	     24,7402	-149,2
     42,5674	     24,3911	-149,2	     24,6807	-149,4
     42,5704	      24,328	-148,9	      24,627	-149,2
     42,5733	     24,3077	-149,1	     24,5808	-148,9
     42,5762	     24,2475	-148,7	     24,5375	-148,9
     42,5792	     24,1813	-148,8	     24,4756	-148,9
     42,5821	     24,1339	-148,3	     24,4187	-148,7
      42,585	      24,075	-148,5	     24,3675	-149,0
      42,588	     24,0162	-148,1	     24,3165	-148,4
     42,5909	     23,9602	-148,5	     24,2423	-148,7
     42,5938	     23,9161	-148,2	     24,1987	-148,0
     42,5968	     23,8768	-148,4	     24,1668	-148,4
     42,5997	     23,8087	-148,0	     24,1153	-148,1
     42,6026	     23,7422	-148,1	      24,031	-148,5
     42,6056	     23,7089	-147,6	     23,9755	-148,1
     42,6085	     23,6434	-147,9	     23,9371	-148,3
     42,6114	     23,5993	-147,6	     23,8796	-147,7
     42,6144	     23,5227	-148,1	      23,829	-147,8
     42,6173	     23,4673	-147,6	     23,7855	-147,6
     42,6202	     23,4285	-147,7	     23,7368	-147,4
     42,6232	     23,3921	-147,2	     23,6913	-147,6
     42,6261	      23,341	-147,4	     23,6398	-147,8
      42,629	      23,272	-147,0	     23,5636	-147,4
      42,632	     23,2085	-147,1	     23,5212	-147,5
     42,6349	     23,1801	-147,1	     23,4678	-146,9
     42,6378	     23,1131	-147,2	     23,4117	-146,9
     42,6408	     23,0637	-146,7	     23,3614	-146,9
     42,6437	     23,0141	-146,8	     23,3261	-147,4
     42,6466	     22,9658	-146,4	     23,2531	-147,1
     42,6496	     22,9053	-146,7	     23,2024	-147,0
     42,6525	     22,8685	-146,6	     23,1406	-146,8
     42,6554	     22,8317	-146,9	     23,1018	-146,5
     42,6584	      22,764	-146,6	     23,0528	-146,4
     42,6613	     22,7127	-146,5	      23,004	-146,8
     42,6642	     22,6687	-146,0	     22,9321	-146,4
     42,6672	     22,6029	-146,2	     22,8773	-146,5
     42,6701	     22,5536	-146,0	      22,837	-146,1
      42,673	     22,4987	-146,0	     22,7902	-146,3
      42,676	     22,4458	-146,2	     22,7447	-145,9
     42,6789	     22,3849	-146,1	     22,6975	-145,9
     42,6818	      22,354	-146,2	     22,6413	-146,1
     42,6847	     22,3098	-145,6	     22,5785	-146,3
     42,6877	     22,2673	-145,3	     22,5158	-145,5
     42,6906	     22,2069	-145,9	     22,4787	-145,7
     42,6936	     22,1506	-145,6	     22,4124	-145,5
     42,6965	     22,0774	-145,5	      22,361	-145,7
     42,6994	     22,0454	-145,5	     22,3248	-145,5
     42,7023	     22,0202	-145,4	     22,2564	-145,5
     42,7053	     21,9575	-145,2	      22,195	-145,3
     42,7082	     21,8934	-145,0	     22,1662	-145,3
     42,7111	     21,8559	-145,0	      22,128	-144,9
     42,7141	     21,8002	-145,3	     22,0516	-145,3
      42,717	     21,7445	-144,7	     22,0024	-144,8
     42,7199	     21,6923	-144,7	     21,9545	-145,3
     42,7229	     21,6617	-144,6	     21,9181	-144,8
     42,7258	     21,6156	-144,8	     21,8764	-144,7
     42,7287	     21,5607	-144,6	     21,8137	-144,3
     42,7317	     21,5106	-144,6	     21,7495	-144,7
     42,7346	     21,4629	-144,4	     21,7092	-144,7
     42,7375	     21,4194	-144,5	     21,6547	-144,8
     42,7405	      21,355	-144,1	      21,612	-144,4
     42,7434	     21,3159	-144,4	     21,5686	-144,3
     42,7463	     21,2571	-144,4	     21,5131	-144,2
     42,7493	     21,2212	-144,3	     21,4432	-144,1
     42,7522	     21,1624	-143,8	     21,4165	-144,1
     42,7551	     21,1237	-143,9	     21,3662	-144,1
     42,7581	     21,0765	-144,0	     21,3182	-143,9
      42,761	     21,0084	-143,9	     21,2682	-143,6
     42,7639	     20,9499	-143,7	     21,2249	-144,2
     42,7669	     20,9247	-143,5	     21,1666	-143,6
     42,7698	      20,886	-143,5	     21,0996	-143,9
     42,7727	     20,8336	-143,3	     21,0716	-143,4
     42,7757	     20,7744	-143,4	     21,0319	-143,5
     42,7786	     20,7255	-143,2	     20,9665	-143,1
     42,7815	     20,6904	-143,5	     20,9245	-143,5
     42,7845	     20,6304	-143,2	     20,8757	-143,4
     42,7874	     20,5697	-143,2	     20,8266	-143,2
     42,7903	     20,5284	-142,9	     20,7736	-143,1
     42,7933	     20,4871	-143,2	     20,7291	-143,0
     42,7962	     20,4274	-143,0	     20,6748	-143,0
     42,7991	     20,3797	-143,3	      20,621	-142,9
     42,8021	     20,3357	-142,7	     20,5906	-143,0
      42,805	        20,3	-142,6	     20,5258	-142,7
     42,8079	     20,2545	-142,7	      20,484	-142,8
     42,8109	     20,2075	-142,5	     20,4377	-142,4
     42,8138	     20,1154	-142,5	      20,389	-142,9
     42,8167	      20,105	-142,3	     20,3257	-142,4
     42,8196	     20,0547	-142,4	     20,2806	-142,6
     42,8226	     20,0121	-142,0	     20,2661	-142,0
     42,8255	     19,9762	-142,4	     20,1973	-142,3
     42,8284	     19,9221	-142,1	     20,1583	-142,1
     42,8314	     19,8758	-142,1	     20,0983	-142,4
     42,8343	     19,8289	-141,8	     20,0475	-142,2
     42,8372	     19,7823	-141,9	     20,0224	-141,6
     42,8402	     19,7298	-141,8	     19,9658	-141,9
     42,8431	     19,7065	-142,0	     19,9112	-141,8
      42,846	     19,6491	-141,6	     19,8695	-142,1
      42,849	     19,5956	-141,2	      19,801	-141,8
     42,8519	     19,5563	-141,5	     19,7741	-141,8
     42,8548	     19,5095	-141,3	     19,7327	-141,3
     42,8578	     19,4687	-141,9	     19,6693	-141,7
     42,8607	     19,4227	-141,2	     19,6377	-141,8
     42,8636	     19,3696	-141,3	      19,588	-141,2
     42,8666	     19,3236	-140,9	     19,5392	-141,1
     42,8695	     19,2807	-141,4	     19,5038	-141,0
     42,8724	     19,2318	-141,2	     19,4418	-141,7
     42,8754	     19,1892	-140,8	     19,3859	-141,1
     42,8783	     19,1397	-140,9	     19,3455	-141,3
     42,8812	      19,093	-140,8	     19,3188	-140,7
     42,8842	     19,0683	-141,2	     19,2733	-140,9
     42,8871	     19,0199	-140,7	     19,2298	-140,9
       42,89	     18,9837	-140,8	     19,1803	-140,6
      42,893	     18,9089	-140,5	     19,1248	-140,8
     42,8959	       18,87	-140,6	     19,0927	-140,5
     42,8988	     18,8304	-140,4	     19,0311	-140,8
     42,9018	     18,8031	-140,6	     18,9929	-140,6
     42,9047	     18,7495	-140,3	     18,9369	-140,7
     42,9076	     18,7032	-140,2	     18,9064	-140,2
     42,9106	     18,6553	-140,6	     18,8483	-140,3
     42,9135	     18,6136	-140,2	     18,7951	-140,7
     42,9164	     18,5821	-140,3	     18,7416	-140,3
     42,9194	      18,535	-139,8	     18,7237	-140,3
     42,9223	      18,484	-140,0	       18,69	-139,7
     42,9252	      18,452	-140,2	     18,6398	-140,3
     42,9282	     18,3951	-139,9	     18,5924	-140,2
     42,9311	     18,3596	-139,9	     18,5308	-140,1
      42,934	     18,3123	-139,6	     18,5037	-139,8
      42,937	     18,2701	-139,8	     18,4619	-139,6
     42,9399	     18,2105	-139,6	     18,3961	-139,6
     42,9428	     18,1888	-139,6	     18,3613	-139,6
     42,9457	     18,1368	-139,4	     18,3178	-139,8
     42,9487	     18,0952	-139,3	     18,2882	-139,4
     42,9516	     18,0584	-139,6	     18,2392	-139,4
     42,9545	     18,0149	-139,3	     18,1834	-139,6
     42,9575	     17,9808	-139,3	     18,1361	-139,6
     42,9604	     17,9256	-139,0	      18,099	-139,4
     42,9633	     17,8775	-139,2	     18,0556	-139,0
     42,9663	     17,8483	-139,2	     18,0052	-139,5
     42,9692	     17,8051	-139,0	     17,9659	-139,2
     42,9721	     17,7561	-139,1	     17,9338	-139,0
     42,9751	      17,707	-138,9	     17,8922	-139,0
      42,978	     17,6779	-139,0	     17,8245	-138,9
     42,9809	     17,6329	-138,8	     17,7823	-139,2
     42,9839	     17,5911	-138,8	     17,7367	-138,8
     42,9868	      17,562	-138,7	     17,7062	-138,8
     42,9897	     17,5121	-138,6	     17,6717	-138,8
     42,9927	     17,4753	-138,7	     17,6093	-138,6
     42,9956	     17,4288	-138,4	     17,5822	-138,6
     42,9985	     17,3731	-138,4	     17,5441	-138,3
     43,0015	     17,3259	-138,5	     17,4991	-138,6
     43,0044	     17,3168	-138,5	     17,4602	-138,7
     43,0073	     17,2757	-138,3	     17,4104	-138,3
     43,0103	     17,2218	-138,1	     17,3689	-138,3
     43,0132	     17,1804	-138,4	     17,3288	-138,0
     43,0161	       17,13	-138,2	     17,2962	-138,4
     43,0191	     17,1151	-137,9	     17,2449	-138,2
      43,022	     17,0814	-138,0	     17,2023	-137,9
     43,0249	      17,016	-137,9	     17,1764	-138,0
     43,0279	     16,9712	-138,0	     17,1147	-137,9
     43,0308	     16,9436	-137,9	     17,0711	-138,1
     43,0337	     16,9179	-137,5	     17,0506	-137,7
     43,0367	     16,8526	-137,9	     16,9888	-137,7
     43,0396	     16,8292	-137,8	     16,9607	-138,0
     43,0425	     16,7887	-137,6	     16,9197	-137,6
     43,0455	     16,7479	-137,3	     16,8598	-138,0
     43,0484	     16,7098	-137,4	     16,8341	-137,3
     43,0513	     16,6628	-137,8	     16,8017	-137,6
     43,0543	     16,6299	-137,2	     16,7677	-137,8
     43,0572	     16,5839	-137,5	     16,7162	-137,1
     43,0601	     16,5507	-137,0	     16,6832	-137,3
      43,063	     16,5063	-137,3	     16,6351	-137,3
      43,066	     16,4656	-137,3	     16,5943	-137,4
     43,0689	     16,4321	-137,0	     16,5615	-137,3
     43,0718	     16,3976	-137,1	     16,5182	-136,9
     43,0748	     16,3555	-137,0	     16,4731	-137,2
     43,0777	     16,3247	-137,0	     16,4444	-137,0
     43,0806	     16,2885	-137,1	      16,388	-137,0
     43,0836	     16,2424	-136,7	     16,3624	-137,3
     43,0865	     16,2135	-137,0	      16,304	-136,9
     43,0894	     16,1611	-136,8	     16,2676	-137,1
     43,0924	     16,1367	-136,4	     16,2672	-136,8
     43,0953	     16,1065	-136,9	     16,1961	-137,0
     43,0982	     16,0612	-136,5	     16,1564	-136,8
     43,1012	     15,9942	-136,7	      16,118	-136,5
     43,1041	     15,9642	-136,4	      16,083	-136,6
      43,107	     15,9431	-136,4	      16,044	-136,8
       43,11	     15,9053	-136,6	     16,0101	-136,7
     43,1129	     15,8627	-136,1	       15,96	-136,6
     43,1158	     15,8284	-136,2	     15,9294	-136,1
     43,1188	     15,7783	-136,3	     15,8815	-136,6
     43,1217	     15,7664	-136,1	     15,8545	-136,5
     43,1246	     15,7245	-136,1	     15,8081	-136,2
     43,1276	     15,6866	-135,9	     15,7922	-136,3
     43,1305	      15,649	-136,3	     15,7505	-136,4
     43,1334	     15,6061	-136,1	     15,6875	-136,3
     43,1364	     15,5677	-135,7	     15,6783	-136,1
     43,1393	     15,5277	-136,1	     15,6176	-136,0
     43,1422	     15,4924	-136,2	     15,5832	-135,9
     43,1452	     15,4558	-135,9	     15,5682	-136,0
     43,1481	      15,438	-135,8	     15,5236	-135,6
      43,151	      15,373	-135,7	     15,4691	-136,2
      43,154	     15,3378	-135,8	     15,4343	-135,7
     43,1569	     15,3093	-135,8	     15,4038	-135,4
     43,1598	     15,2791	-135,2	     15,3564	-135,8
     43,1628	      15,254	-135,7	     15,3174	-135,7
     43,1657	     15,1836	-135,4	     15,2937	-135,5
     43,1686	     15,1643	-135,4	     15,2843	-135,6
     43,1716	     15,1258	-135,5	      15,235	-135,5
     43,1745	      15,106	-135,4	     15,1799	-135,9
     43,1774	     15,0564	-135,4	     15,1743	-135,2
     43,1804	     15,0207	-135,2	     15,1185	-135,3
     43,1833	     14,9884	-135,2	     15,0807	-135,5
     43,1862	     14,9667	-135,2	     15,0196	-135,2
     43,1891	     14,9261	-135,3	     14,9974	-134,9
     43,1921	     14,8918	-135,0	     14,9868	-135,5
      43,195	     14,8553	-135,3	     14,9355	-135,3
     43,1979	     14,8268	-134,9	     14,8998	-135,1
     43,2009	     14,7977	-134,8	     14,8625	-135,0
     43,2038	     14,7353	-135,1	     14,8229	-135,1
     43,2067	     14,7187	-134,9	     14,7763	-135,0
     43,2097	     14,6925	-134,6	     14,7604	-134,7
     43,2126	     14,6324	-134,8	     14,7226	-134,9
     43,2155	     14,6119	-134,7	     14,6756	-135,2
     43,2185	     14,5849	-134,7	     14,6669	-134,5
     43,2214	     14,5414	-134,7	       14,61	-134,6
     43,2243	     14,5077	-134,6	     14,5973	-135,0
     43,2273	       14,48	-134,9	     14,5605	-134,6
     43,2302	     14,4512	-134,4	     14,5023	-134,5
     43,2331	     14,3888	-134,5	     14,4707	-134,8
     43,2361	     14,3804	-134,8	     14,4375	-134,5
      43,239	     14,3473	-134,1	     14,4109	-134,5
     43,2419	     14,2979	-134,2	     14,3861	-134,8
     43,2449	     14,2735	-134,6	     14,3414	-134,3
     43,2478	     14,2447	-134,0	     14,3155	-134,6
     43,2507	     14,2152	-134,1	     14,2769	-134,2
     43,2537	     14,1765	-134,5	     14,2443	-134,2
     43,2566	     14,1333	-134,1	     14,2293	-134,2
     43,2595	     14,1245	-134,1	     14,1716	-134,0
     43,2625	     14,0826	-134,4	     14,1378	-134,1
     43,2654	     14,0508	-134,0	     14,1065	-134,4
     43,2683	     14,0321	-133,9	     14,0769	-134,1
     43,2713	     13,9815	-134,1	     14,0207	-134,1
     43,2742	     13,9499	-134,0	     14,0058	-134,2
     43,2771	     13,9399	-133,8	     13,9958	-133,9
     43,2801	     13,8789	-134,0	      13,935	-133,9
      43,283	      13,854	-133,6	     13,9023	-134,0
     43,2859	     13,8396	-133,8	     13,8847	-133,6
     43,2889	     13,7808	-133,6	     13,8614	-133,6
     43,2918	     13,7577	-133,6	     13,8055	-134,1
     43,2947	     13,7482	-133,4	     13,7724	-133,5
     43,2977	     13,7105	-133,5	     13,7586	-133,6
     43,3006	     13,6693	-133,5	     13,7228	-134,0
     43,3035	     13,6257	-133,6	     13,7118	-133,6
     43,3064	     13,6142	-133,6	     13,6405	-133,4
     43,3094	     13,5894	-133,3	      13,623	-133,8
     43,3123	     13,5391	-133,7	     13,5907	-133,4
     43,3153	     13,5032	-133,1	     13,5632	-133,4
     43,3182	     13,4815	-133,3	     13,5358	-133,7
     43,3211	      13,467	-133,4	     13,5048	-133,5
      43,324	     13,4028	-133,3	     13,4538	-133,1
      43,327	     13,3935	-133,1	     13,4401	-133,6
     43,3299	     13,3836	-133,5	     13,4143	-133,3
     43,3328	     13,3237	-133,1	      13,377	-133,2
     43,3358	     13,3062	-132,9	     13,3322	-133,3
     43,3387	     13,2626	-133,4	     13,3206	-133,2
     43,3416	     13,2477	-132,8	     13,2933	-133,0
     43,3446	      13,209	-132,9	     13,2397	-133,3
     43,3475	     13,1618	-133,2	     13,2277	-133,0
     43,3504	     13,1487	-133,0	     13,2081	-132,8
     43,3534	     13,1307	-132,6	     13,1483	-133,3
     43,3563	      13,085	-133,2	     13,1298	-133,0
     43,3592	     13,0678	-132,7	     13,1023	-132,9
     43,3622	      13,038	-132,6	     13,0691	-133,1
     43,3651	      13,007	-133,1	     13,0418	-133,2
      43,368	     12,9617	-132,7	     13,0148	-132,5
      43,371	     12,9422	-132,6	     12,9797	-132,9
     43,3739	     12,9281	-132,8	      12,954	-133,0
     43,3768	     12,8889	-132,7	     12,9363	-132,4
     43,3798	     12,8456	-132,3	     12,8894	-132,8
     43,3827	     12,8355	-132,8	     12,8492	-132,9
     43,3856	     12,8219	-132,6	     12,8406	-132,4
     43,3886	     12,7619	-132,1	     12,8017	-132,5
     43,3915	     12,7354	-132,5	     12,7729	-132,8
     43,3944	     12,7042	-132,7	     12,7512	-132,2
     43,3974	     12,6842	-132,1	     12,7164	-132,5
     43,4003	     12,6587	-132,4	     12,6944	-132,6
     43,4032	     12,6252	-132,6	     12,6575	-132,4
     43,4062	     12,6081	-132,0	     12,6402	-132,3
     43,4091	     12,5606	-132,1	     12,5966	-132,6
      43,412	     12,5415	-132,2	     12,5758	-132,3
      43,415	     12,5261	-131,9	     12,5549	-132,2
     43,4179	     12,4893	-132,0	     12,5156	-132,1
     43,4208	     12,4642	-132,2	     12,5065	-132,1
     43,4238	     12,4282	-132,1	     12,4562	-132,3
     43,4267	     12,3947	-132,1	     12,4248	-132,0
     43,4296	     12,3781	-132,1	      12,406	-132,3
     43,4326	     12,3502	-132,1	     12,3783	-132,1
     43,4355	     12,3393	-132,0	     12,3392	-132,0
     43,4384	     12,2762	-131,9	     12,3257	-132,0
     43,4413	     12,2666	-132,1	     12,2874	-132,2
     43,4443	     12,2519	-131,8	     12,2723	-131,6
     43,4472	     12,2256	-131,5	     12,2357	-131,9
     43,4501	     12,1989	-132,1	     12,2016	-132,1
     43,4531	     12,1629	-131,7	     12,1877	-131,6
      43,456	     12,1401	-131,5	     12,1572	-131,9
     43,4589	     12,1065	-131,7	     12,1208	-132,0
     43,4619	     12,0979	-131,7	     12,1079	-131,8
     43,4648	     12,0571	-131,3	     12,0655	-131,6
     43,4677	     12,0341	-131,6	     12,0457	-131,9
     43,4707	     12,0275	-131,7	     12,0328	-131,6
     43,4736	     11,9678	-131,7	     11,9902	-131,8
     43,4765	     11,9589	-131,5	     11,9473	-131,4
     43,4795	     11,9268	-131,5	     11,9215	-131,9
     43,4824	     11,8979	-131,7	     11,9315	-131,6
     43,4853	     11,8834	-131,3	     11,9005	-131,3
     43,4883	     11,8549	-131,1	     11,8385	-131,8
     43,4912	     11,8078	-131,7	     11,8284	-131,6
     43,4941	     11,8019	-131,3	     11,8276	-131,3
     43,4971	     11,7743	-131,1	     11,7661	-131,8
        43,5	     11,7569	-131,2	     11,7402	-131,5

